Timestamp,True_X,True_Y,Mean_Mag_x,Mean_Mag_y,Mean_Mag_z,Mean_Acc_x,Mean_Acc_y,Mean_Acc_z,Mean_Gyro_x,Mean_Gyro_y,Mean_Gyro_z,Mean_Orn_x,Mean_Orn_y,Mean_Orn_z,Mean_Pressure,00:1a:ac:a0:de:b5,00:1a:ac:a0:de:b6,00:1a:ac:a0:de:b7,00:1a:ac:a0:de:b8,00:1a:ac:a0:de:d3,00:1a:ac:a0:de:e8,00:1a:ac:a0:de:e9,00:1a:ac:a0:de:g9,00:1a:ac:a0:de:h4,00:1a:ac:a0:de:k7,00:1a:ac:a0:de:k8,00:1a:ac:a0:de:m2,00:1a:ac:a0:de:n6,00:1a:ac:a0:de:p2,00:1a:ac:a0:de:p3,00:1a:ac:a0:de:p5,00:1a:ac:a0:de:p6,00:1a:ac:a0:de:p7,00:1a:ac:a0:de:p8,00:1a:ac:a0:de:r1,00:1a:ac:a0:de:r5,00:1a:ac:a0:de:r6,00:1a:ac:a0:de:s2,00:1a:ac:a0:de:s3,00:1a:ac:a0:de:s4,00:1a:ac:a0:de:s5,00:1a:ac:a0:de:s7,00:1a:ac:a0:de:t3,00:1a:ac:a0:de:t8,00:1a:ac:a0:de:t9,00:1a:ac:a0:de:u2,00:1a:ac:a0:de:u3,00:1a:ac:a0:de:u4,00:1a:ac:a0:de:u5,00:1a:ac:a0:de:v7,00:1a:ac:a0:de:w2,00:1a:ac:a0:de:w3,00:1a:ac:a0:de:w6,00:1a:ac:a0:de:w8,00:1a:ac:a0:de:w9,00:1a:ac:a0:de:x1,00:1a:ac:a0:de:x2,00:1a:ac:a0:de:x4,32:24:a9:c6:2d:75,86:25:19:b5:ef:50,00:1a:ac:a0:de:m3,00:1a:ac:a0:de:s6,00:1a:ac:a0:de:x3,ea:d8:d1:b4:cf:21,00:1a:ab:a0:de:a4,00:1a:ac:a0:de:f6,00:1a:ac:a0:de:n8,00:1a:ac:a0:de:p1,00:1a:ac:a0:de:p4,00:1a:ac:a0:de:r2,00:1a:ac:a0:de:r9,00:1a:ac:a0:de:s1,00:1a:ac:a0:de:t5,00:1a:ac:a0:de:t7,00:1a:ac:a0:de:u1,00:1a:ac:a0:de:v8,00:1a:ac:a0:de:w7,00:1a:ac:a0:de:r7,00:1a:ac:a0:de:w4,00:1a:ac:a0:de:x7,00:1a:ac:a0:de:h3,70:5d:cc:e8:73:1c,00:1a:ac:a0:de:f2,00:1a:ac:a0:de:h6,00:1a:ac:a0:de:g2,70:5d:cc:e8:73:1e,00:1a:ac:a0:de:f5,00:1a:ac:a0:de:i8,00:1a:ac:a0:de:j9,00:1a:ac:a0:de:n4,00:1a:ac:a0:de:n9,00:1a:ac:a0:de:t1,00:1a:ac:a0:de:t6,72:5d:cc:c6:d1:c8,00:1a:ac:a0:de:d5,00:1a:ac:a0:de:f3,00:1a:ac:a0:de:f8,00:1a:ac:a0:de:h9,00:1a:ac:a0:de:l1,00:1a:ac:a0:de:f9,00:1a:ac:a0:de:m9,00:1a:ac:a0:de:q4,88:36:6c:4b:14:1c,00:1a:ac:a0:de:d4,00:1a:ac:a0:de:k9,00:1a:ac:a0:de:l2,00:1a:ac:a0:de:r3,00:1a:ac:a0:de:v9,00:1a:ac:a0:de:n7,00:1a:ac:a0:de:t4,00:1b:ad:a1:df:a8,00:1a:ac:a0:de:l7,00:1a:ac:a0:de:l9,00:1a:ac:a0:de:n5,00:1a:ac:a0:de:t2,70:5d:cc:b1:75:50,00:1a:ac:a0:de:b2,00:1a:ac:a0:de:b3,00:1a:ac:a0:de:f7,00:1a:ac:a0:de:g7,00:1a:ac:a0:de:l8,00:1a:ac:a0:de:q2,00:1a:ab:a0:de:a7,00:1a:ac:a0:de:b1,00:1a:ac:a0:de:k4,00:1a:ac:a0:de:r4,00:1a:ac:a0:de:w1,70:5d:cc:ea:72:5c,88:36:6c:51:f3:22,00:1a:ab:a0:de:a3,00:1a:ac:a0:de:j7,00:1a:ac:a0:de:v1,00:1a:ac:a0:de:b4,00:1a:ac:a0:de:k3,28:b3:71:0f:d8:ec,28:b3:71:0f:d8:ed,28:b3:71:4f:d8:ec,28:b3:71:8f:d8:ec,28:b3:71:cf:d8:ec,72:5d:cc:4b:31:60,00:1a:ac:a0:de:h5,00:1a:ac:a0:de:q5,00:1a:ac:a0:de:r8,00:1a:ac:a0:de:w5,70:5d:cc:ea:72:5e,00:1a:ac:a0:de:c2,00:1a:ac:a0:de:g1,00:1a:ac:a0:de:j1,00:1a:ac:a0:de:j8,00:1a:ac:a0:de:u8,00:1a:ac:a0:de:i7,70:5d:cc:1b:31:60,00:1a:ac:a0:de:c1,00:1a:ac:a0:de:q6,00:1a:ac:a0:de:v2,00:1a:ac:a0:de:v3,00:1a:ac:a0:de:p9,00:1a:ac:a0:de:m4,00:1a:ac:a0:de:u6,00:1a:ac:a0:de:m5,00:1a:ac:a0:de:q3,00:1a:ac:a0:de:q8,00:1a:ac:a0:de:s8,00:1a:ac:a0:de:u9,00:1a:ac:a0:de:v5,00:1a:ac:a0:de:x5,00:1a:ac:a0:de:q7,00:1a:ac:a0:de:v4
2021.05.22 151848,1.0,27.0,46.737735150943394,-37.713961691823904,-6.547924432704403,-0.23177077013836483,1.4065859698113206,9.612373525157233,0.0020093240694968547,-0.004402840240880504,0.0014714553864779876,-0.14532840762685675,0.02402620262210779,-2.2317488748322494,1001.9976818867922,-59.0,-79.0,-57.0,-82.0,-62.0,-54.0,-69.0,-87.0,-62.0,-56.0,-77.0,-77.0,-89.0,-88.0,-64.0,-61.0,-62.0,-69.0,-88.0,-77.0,-43.0,-52.0,-38.0,-43.0,-67.0,-73.0,-87.0,-88.0,-88.0,-64.0,-60.0,-63.0,-69.0,-88.0,-80.0,-43.0,-52.0,-90.0,-38.0,-43.0,-66.0,-72.0,-86.0,-75.0,-72.0,-100.0,-100.0,-100.0,-100.0,-100.0,-100.0,-100.0,-100.0,-100.0,-100.0,-100.0,-100.0,-100.0,-100.0,-100.0,-100.0,-100.0,-100.0,-100.0,-100.0,-100.0,-100.0,-100.0,-100.0,-100.0,-100.0,-100.0,-100.0,-100.0,-100.0,-100.0,-100.0,-100.0,-100.0,-100.0,-100.0,-100.0,-100.0,-100.0,-100.0,-100.0,-100.0,-100.0,-100.0,-100.0,-100.0,-100.0,-100.0,-100.0,-100.0,-100.0,-100.0,-100.0,-100.0,-100.0,-100.0,-100.0,-100.0,-100.0,-100.0,-100.0,-100.0,-100.0,-100.0,-100.0,-100.0,-100.0,-100.0,-100.0,-100.0,-100.0,-100.0,-100.0,-100.0,-100.0,-100.0,-100.0,-100.0,-100.0,-100.0,-100.0,-100.0,-100.0,-100.0,-100.0,-100.0,-100.0,-100.0,-100.0,-100.0,-100.0,-100.0,-100.0,-100.0,-100.0,-100.0,-100.0,-100.0,-100.0,-100.0,-100.0,-100.0,-100.0,-100.0,-100.0,-100.0,-100.0,-100.0
2021.05.22 151859,1.0,26.0,5.660217302173913,-29.40163007065217,-28.724021336956522,-0.40573911517934785,1.4137370847826087,9.599538671195653,0.0018458756684782605,-0.000142756472554347,0.0037315899298913054,-0.14619582482492147,0.042243450358712444,-2.9645293691883916,1001.9938384782608,-64.0,-74.0,-55.0,-100.0,-65.0,-58.0,-75.0,-100.0,-100.0,-64.0,-71.0,-100.0,-100.0,-100.0,-68.0,-56.0,-67.0,-72.0,-100.0,-100.0,-55.0,-61.0,-40.0,-48.0,-67.0,-76.0,-86.0,-100.0,-100.0,-67.0,-62.0,-66.0,-74.0,-100.0,-100.0,-56.0,-59.0,-89.0,-40.0,-47.0,-67.0,-77.0,-86.0,-100.0,-75.0,-90.0,-73.0,-73.0,-79.0,-100.0,-100.0,-100.0,-100.0,-100.0,-100.0,-100.0,-100.0,-100.0,-100.0,-100.0,-100.0,-100.0,-100.0,-100.0,-100.0,-100.0,-100.0,-100.0,-100.0,-100.0,-100.0,-100.0,-100.0,-100.0,-100.0,-100.0,-100.0,-100.0,-100.0,-100.0,-100.0,-100.0,-100.0,-100.0,-100.0,-100.0,-100.0,-100.0,-100.0,-100.0,-100.0,-100.0,-100.0,-100.0,-100.0,-100.0,-100.0,-100.0,-100.0,-100.0,-100.0,-100.0,-100.0,-100.0,-100.0,-100.0,-100.0,-100.0,-100.0,-100.0,-100.0,-100.0,-100.0,-100.0,-100.0,-100.0,-100.0,-100.0,-100.0,-100.0,-100.0,-100.0,-100.0,-100.0,-100.0,-100.0,-100.0,-100.0,-100.0,-100.0,-100.0,-100.0,-100.0,-100.0,-100.0,-100.0,-100.0,-100.0,-100.0,-100.0,-100.0,-100.0,-100.0,-100.0,-100.0,-100.0,-100.0,-100.0,-100.0,-100.0,-100.0,-100.0,-100.0
2021.05.22 151912,1.0,25.0,4.6453713514285715,-43.43245645142857,-30.822513874285715,-0.26728867589714284,1.1748689977142857,9.634199182857143,0.004328416569142857,-0.006031858249428571,0.0021746803279999996,-0.12132206929581502,0.027686815469392667,-3.0456018039158415,1001.9976494857143,-64.0,-79.0,-56.0,-87.0,-67.0,-100.0,-68.0,-87.0,-61.0,-58.0,-76.0,-100.0,-100.0,-88.0,-63.0,-53.0,-63.0,-69.0,-83.0,-100.0,-41.0,-54.0,-33.0,-43.0,-51.0,-73.0,-83.0,-100.0,-87.0,-63.0,-52.0,-63.0,-70.0,-84.0,-100.0,-41.0,-54.0,-81.0,-34.0,-45.0,-51.0,-73.0,-82.0,-70.0,-75.0,-88.0,-63.0,-65.0,-100.0,-72.0,-74.0,-75.0,-72.0,-82.0,-83.0,-79.0,-87.0,-74.0,-72.0,-83.0,-82.0,-88.0,-100.0,-100.0,-100.0,-100.0,-100.0,-100.0,-100.0,-100.0,-100.0,-100.0,-100.0,-100.0,-100.0,-100.0,-100.0,-100.0,-100.0,-100.0,-100.0,-100.0,-100.0,-100.0,-100.0,-100.0,-100.0,-100.0,-100.0,-100.0,-100.0,-100.0,-100.0,-100.0,-100.0,-100.0,-100.0,-100.0,-100.0,-100.0,-100.0,-100.0,-100.0,-100.0,-100.0,-100.0,-100.0,-100.0,-100.0,-100.0,-100.0,-100.0,-100.0,-100.0,-100.0,-100.0,-100.0,-100.0,-100.0,-100.0,-100.0,-100.0,-100.0,-100.0,-100.0,-100.0,-100.0,-100.0,-100.0,-100.0,-100.0,-100.0,-100.0,-100.0,-100.0,-100.0,-100.0,-100.0,-100.0,-100.0,-100.0,-100.0,-100.0,-100.0,-100.0,-100.0,-100.0,-100.0,-100.0,-100.0,-100.0,-100.0,-100.0
2021.05.22 151924,1.0,24.0,37.31576429411765,-4.173882284117647,-32.01352897058824,-0.23518102438235294,1.1295562164117647,9.641154505882353,0.006669210794411765,-0.005781659862941177,-0.008986905704117646,-0.11678389341515649,0.024527004795313282,-1.5792598808512968,1001.9977820000001,-63.0,-83.0,-54.0,-100.0,-64.0,-54.0,-71.0,-87.0,-69.0,-63.0,-88.0,-100.0,-75.0,-82.0,-60.0,-48.0,-64.0,-63.0,-85.0,-63.0,-39.0,-67.0,-28.0,-37.0,-60.0,-64.0,-71.0,-76.0,-82.0,-59.0,-46.0,-66.0,-63.0,-80.0,-64.0,-39.0,-69.0,-75.0,-28.0,-38.0,-58.0,-65.0,-72.0,-100.0,-73.0,-100.0,-57.0,-57.0,-100.0,-100.0,-80.0,-100.0,-100.0,-79.0,-75.0,-75.0,-87.0,-77.0,-100.0,-79.0,-75.0,-86.0,-85.0,-86.0,-78.0,-100.0,-100.0,-100.0,-100.0,-100.0,-100.0,-100.0,-100.0,-100.0,-100.0,-100.0,-100.0,-100.0,-100.0,-100.0,-100.0,-100.0,-100.0,-100.0,-100.0,-100.0,-100.0,-100.0,-100.0,-100.0,-100.0,-100.0,-100.0,-100.0,-100.0,-100.0,-100.0,-100.0,-100.0,-100.0,-100.0,-100.0,-100.0,-100.0,-100.0,-100.0,-100.0,-100.0,-100.0,-100.0,-100.0,-100.0,-100.0,-100.0,-100.0,-100.0,-100.0,-100.0,-100.0,-100.0,-100.0,-100.0,-100.0,-100.0,-100.0,-100.0,-100.0,-100.0,-100.0,-100.0,-100.0,-100.0,-100.0,-100.0,-100.0,-100.0,-100.0,-100.0,-100.0,-100.0,-100.0,-100.0,-100.0,-100.0,-100.0,-100.0,-100.0,-100.0,-100.0,-100.0,-100.0,-100.0,-100.0
2021.05.22 152051,9.0,24.0,28.806908727272734,-1.8523636078181818,-29.66327236363637,-0.25776120501212124,0.8729694667272728,9.661082639393937,-0.0018140846515151516,-0.007752435275757577,-0.0003591146445454544,-0.09008985374009966,0.026640352972154595,-1.5387555028453017,1002.0031979393938,-61.0,-78.0,-100.0,-80.0,-73.0,-63.0,-72.0,-85.0,-67.0,-64.0,-80.0,-100.0,-75.0,-86.0,-61.0,-43.0,-56.0,-69.0,-81.0,-62.0,-36.0,-54.0,-32.0,-39.0,-53.0,-63.0,-67.0,-76.0,-87.0,-60.0,-43.0,-55.0,-69.0,-82.0,-61.0,-35.0,-53.0,-70.0,-32.0,-39.0,-53.0,-63.0,-69.0,-100.0,-76.0,-100.0,-52.0,-53.0,-81.0,-100.0,-75.0,-100.0,-72.0,-87.0,-71.0,-71.0,-84.0,-100.0,-72.0,-87.0,-71.0,-84.0,-100.0,-81.0,-100.0,-68.0,-86.0,-100.0,-100.0,-100.0,-100.0,-100.0,-100.0,-100.0,-100.0,-100.0,-100.0,-100.0,-100.0,-100.0,-100.0,-100.0,-100.0,-100.0,-100.0,-100.0,-100.0,-100.0,-100.0,-100.0,-100.0,-100.0,-100.0,-100.0,-100.0,-100.0,-100.0,-100.0,-100.0,-100.0,-100.0,-100.0,-100.0,-100.0,-100.0,-100.0,-100.0,-100.0,-100.0,-100.0,-100.0,-100.0,-100.0,-100.0,-100.0,-100.0,-100.0,-100.0,-100.0,-100.0,-100.0,-100.0,-100.0,-100.0,-100.0,-100.0,-100.0,-100.0,-100.0,-100.0,-100.0,-100.0,-100.0,-100.0,-100.0,-100.0,-100.0,-100.0,-100.0,-100.0,-100.0,-100.0,-100.0,-100.0,-100.0,-100.0,-100.0,-100.0,-100.0,-100.0,-100.0,-100.0,-100.0
2021.05.22 152102,10.0,24.0,27.908789458598726,-0.44025476656050955,-31.773248101910827,-0.25915327185987264,0.8156602888535033,9.662997996815285,0.0018637225773885352,-0.009104615842038217,-0.0025913136885350324,-0.08422499154783354,0.02673359901776272,-1.4859302780430788,1001.9872130573248,-65.0,-100.0,-100.0,-69.0,-100.0,-100.0,-80.0,-80.0,-59.0,-62.0,-75.0,-59.0,-78.0,-86.0,-56.0,-40.0,-54.0,-52.0,-76.0,-57.0,-60.0,-73.0,-39.0,-47.0,-100.0,-59.0,-73.0,-78.0,-84.0,-62.0,-40.0,-54.0,-53.0,-76.0,-57.0,-60.0,-73.0,-72.0,-39.0,-46.0,-54.0,-60.0,-71.0,-100.0,-70.0,-78.0,-55.0,-55.0,-100.0,-68.0,-70.0,-100.0,-64.0,-83.0,-68.0,-72.0,-82.0,-100.0,-63.0,-84.0,-70.0,-82.0,-80.0,-100.0,-66.0,-100.0,-78.0,-84.0,-84.0,-100.0,-100.0,-100.0,-100.0,-100.0,-100.0,-100.0,-100.0,-100.0,-100.0,-100.0,-100.0,-100.0,-100.0,-100.0,-100.0,-100.0,-100.0,-100.0,-100.0,-100.0,-100.0,-100.0,-100.0,-100.0,-100.0,-100.0,-100.0,-100.0,-100.0,-100.0,-100.0,-100.0,-100.0,-100.0,-100.0,-100.0,-100.0,-100.0,-100.0,-100.0,-100.0,-100.0,-100.0,-100.0,-100.0,-100.0,-100.0,-100.0,-100.0,-100.0,-100.0,-100.0,-100.0,-100.0,-100.0,-100.0,-100.0,-100.0,-100.0,-100.0,-100.0,-100.0,-100.0,-100.0,-100.0,-100.0,-100.0,-100.0,-100.0,-100.0,-100.0,-100.0,-100.0,-100.0,-100.0,-100.0,-100.0,-100.0,-100.0,-100.0,-100.0,-100.0,-100.0
2021.05.22 152113,11.0,24.0,28.038193206451616,-0.5833548235483871,-33.15058016129032,-0.21155475063032259,0.9228643546451615,9.661376112903227,0.0021242346361290327,-0.0032159096074193547,0.005383496401290322,-0.09520529950818703,0.02189405941584654,-1.4746896936047462,1001.9730379354837,-64.0,-77.0,-53.0,-73.0,-100.0,-100.0,-85.0,-77.0,-58.0,-59.0,-72.0,-58.0,-80.0,-85.0,-61.0,-39.0,-54.0,-56.0,-72.0,-100.0,-63.0,-68.0,-48.0,-46.0,-47.0,-56.0,-69.0,-100.0,-85.0,-60.0,-40.0,-53.0,-56.0,-73.0,-100.0,-64.0,-68.0,-72.0,-48.0,-45.0,-47.0,-55.0,-69.0,-100.0,-63.0,-100.0,-54.0,-54.0,-100.0,-100.0,-69.0,-100.0,-100.0,-100.0,-72.0,-72.0,-82.0,-100.0,-100.0,-100.0,-72.0,-82.0,-100.0,-100.0,-63.0,-70.0,-78.0,-100.0,-100.0,-81.0,-66.0,-100.0,-100.0,-100.0,-100.0,-100.0,-100.0,-100.0,-100.0,-100.0,-100.0,-100.0,-100.0,-100.0,-100.0,-100.0,-100.0,-100.0,-100.0,-100.0,-100.0,-100.0,-100.0,-100.0,-100.0,-100.0,-100.0,-100.0,-100.0,-100.0,-100.0,-100.0,-100.0,-100.0,-100.0,-100.0,-100.0,-100.0,-100.0,-100.0,-100.0,-100.0,-100.0,-100.0,-100.0,-100.0,-100.0,-100.0,-100.0,-100.0,-100.0,-100.0,-100.0,-100.0,-100.0,-100.0,-100.0,-100.0,-100.0,-100.0,-100.0,-100.0,-100.0,-100.0,-100.0,-100.0,-100.0,-100.0,-100.0,-100.0,-100.0,-100.0,-100.0,-100.0,-100.0,-100.0,-100.0,-100.0,-100.0,-100.0,-100.0,-100.0,-100.0
2021.05.22 152125,12.0,24.0,28.76463542384106,-1.7499337501324503,-33.90516512582782,-0.26242670283046354,0.7399668746357615,9.675175152317879,0.0005501833039735105,-0.004336738718874173,0.0003843193102649015,-0.07632399273925265,0.02707930289872683,-1.5383524105248862,1001.9852919205297,-62.0,-69.0,-48.0,-76.0,-100.0,-100.0,-87.0,-82.0,-60.0,-60.0,-80.0,-56.0,-100.0,-85.0,-66.0,-39.0,-50.0,-52.0,-73.0,-56.0,-63.0,-76.0,-45.0,-55.0,-53.0,-52.0,-70.0,-100.0,-85.0,-65.0,-39.0,-51.0,-52.0,-74.0,-61.0,-63.0,-76.0,-70.0,-44.0,-54.0,-54.0,-54.0,-67.0,-62.0,-66.0,-70.0,-62.0,-63.0,-100.0,-100.0,-66.0,-100.0,-64.0,-100.0,-75.0,-69.0,-76.0,-100.0,-63.0,-100.0,-75.0,-78.0,-100.0,-100.0,-100.0,-61.0,-78.0,-100.0,-100.0,-100.0,-61.0,-70.0,-75.0,-79.0,-100.0,-100.0,-100.0,-100.0,-100.0,-100.0,-100.0,-100.0,-100.0,-100.0,-100.0,-100.0,-100.0,-100.0,-100.0,-100.0,-100.0,-100.0,-100.0,-100.0,-100.0,-100.0,-100.0,-100.0,-100.0,-100.0,-100.0,-100.0,-100.0,-100.0,-100.0,-100.0,-100.0,-100.0,-100.0,-100.0,-100.0,-100.0,-100.0,-100.0,-100.0,-100.0,-100.0,-100.0,-100.0,-100.0,-100.0,-100.0,-100.0,-100.0,-100.0,-100.0,-100.0,-100.0,-100.0,-100.0,-100.0,-100.0,-100.0,-100.0,-100.0,-100.0,-100.0,-100.0,-100.0,-100.0,-100.0,-100.0,-100.0,-100.0,-100.0,-100.0,-100.0,-100.0,-100.0,-100.0,-100.0,-100.0,-100.0
2021.05.22 152257,20.0,24.0,35.20012238650307,1.325889542944785,-28.884294171779146,-0.38470267855214724,1.0229704230674848,9.639643539877303,0.010879397465644172,-0.00606742839815951,0.006479668648466258,-0.10569269333514694,0.03982676569218143,-1.4387818669980288,1001.9619621472391,-63.0,-69.0,-60.0,-71.0,-100.0,-100.0,-100.0,-82.0,-64.0,-60.0,-74.0,-55.0,-69.0,-83.0,-65.0,-34.0,-48.0,-57.0,-75.0,-63.0,-61.0,-73.0,-57.0,-54.0,-58.0,-64.0,-72.0,-72.0,-83.0,-67.0,-34.0,-48.0,-58.0,-75.0,-63.0,-63.0,-73.0,-72.0,-57.0,-53.0,-58.0,-64.0,-69.0,-100.0,-69.0,-71.0,-50.0,-51.0,-100.0,-100.0,-65.0,-60.0,-66.0,-87.0,-67.0,-71.0,-79.0,-56.0,-65.0,-88.0,-68.0,-78.0,-88.0,-100.0,-100.0,-100.0,-79.0,-100.0,-100.0,-100.0,-100.0,-100.0,-100.0,-88.0,-76.0,-88.0,-78.0,-87.0,-70.0,-100.0,-100.0,-100.0,-100.0,-100.0,-100.0,-100.0,-100.0,-100.0,-100.0,-100.0,-100.0,-100.0,-100.0,-100.0,-100.0,-100.0,-100.0,-100.0,-100.0,-100.0,-100.0,-100.0,-100.0,-100.0,-100.0,-100.0,-100.0,-100.0,-100.0,-100.0,-100.0,-100.0,-100.0,-100.0,-100.0,-100.0,-100.0,-100.0,-100.0,-100.0,-100.0,-100.0,-100.0,-100.0,-100.0,-100.0,-100.0,-100.0,-100.0,-100.0,-100.0,-100.0,-100.0,-100.0,-100.0,-100.0,-100.0,-100.0,-100.0,-100.0,-100.0,-100.0,-100.0,-100.0,-100.0,-100.0,-100.0,-100.0,-100.0,-100.0,-100.0,-100.0,-100.0
2021.05.22 152308,21.0,24.0,37.017374475,1.3889999730625,-31.14899948125,-0.28354830075000004,0.9328857280625001,9.660469253125,0.00699440682125,-0.006051383782500001,0.0020311269287500004,-0.09624796640127893,0.029346488299051943,-1.4472306430339814,1001.9617561875,-85.0,-100.0,-69.0,-83.0,-100.0,-100.0,-100.0,-72.0,-100.0,-78.0,-88.0,-100.0,-100.0,-77.0,-77.0,-28.0,-35.0,-54.0,-61.0,-52.0,-63.0,-87.0,-57.0,-67.0,-48.0,-55.0,-64.0,-74.0,-77.0,-100.0,-27.0,-34.0,-70.0,-61.0,-54.0,-65.0,-87.0,-70.0,-57.0,-68.0,-48.0,-54.0,-64.0,-65.0,-79.0,-100.0,-56.0,-56.0,-49.0,-57.0,-52.0,-60.0,-52.0,-100.0,-71.0,-66.0,-75.0,-60.0,-51.0,-100.0,-72.0,-75.0,-100.0,-100.0,-100.0,-55.0,-57.0,-100.0,-68.0,-100.0,-53.0,-100.0,-100.0,-100.0,-73.0,-75.0,-75.0,-76.0,-100.0,-81.0,-69.0,-80.0,-75.0,-77.0,-100.0,-100.0,-100.0,-100.0,-100.0,-100.0,-100.0,-100.0,-100.0,-100.0,-100.0,-100.0,-100.0,-100.0,-100.0,-100.0,-100.0,-100.0,-100.0,-100.0,-100.0,-100.0,-100.0,-100.0,-100.0,-100.0,-100.0,-100.0,-100.0,-100.0,-100.0,-100.0,-100.0,-100.0,-100.0,-100.0,-100.0,-100.0,-100.0,-100.0,-100.0,-100.0,-100.0,-100.0,-100.0,-100.0,-100.0,-100.0,-100.0,-100.0,-100.0,-100.0,-100.0,-100.0,-100.0,-100.0,-100.0,-100.0,-100.0,-100.0,-100.0,-100.0,-100.0,-100.0,-100.0,-100.0,-100.0,-100.0,-100.0
2021.05.22 152320,22.0,24.0,38.328928125000004,1.9021428215476188,-33.64642804166667,-0.29494284677976196,1.0731866749404761,9.635821011904762,0.002828887958630953,-0.005199626725297618,0.004806927591369048,-0.1109017402909341,0.03054279932985078,-1.4178021649519603,1001.973179047619,-100.0,-86.0,-100.0,-82.0,-100.0,-100.0,-100.0,-100.0,-81.0,-100.0,-100.0,-100.0,-73.0,-69.0,-100.0,-28.0,-35.0,-51.0,-65.0,-56.0,-63.0,-73.0,-58.0,-69.0,-42.0,-57.0,-62.0,-73.0,-69.0,-80.0,-28.0,-35.0,-53.0,-66.0,-56.0,-64.0,-80.0,-68.0,-59.0,-69.0,-42.0,-56.0,-60.0,-100.0,-100.0,-100.0,-54.0,-54.0,-53.0,-61.0,-65.0,-68.0,-46.0,-100.0,-68.0,-67.0,-78.0,-66.0,-47.0,-100.0,-69.0,-78.0,-100.0,-100.0,-100.0,-57.0,-56.0,-100.0,-100.0,-100.0,-52.0,-67.0,-100.0,-100.0,-65.0,-72.0,-63.0,-71.0,-100.0,-100.0,-100.0,-79.0,-81.0,-100.0,-88.0,-82.0,-89.0,-76.0,-100.0,-100.0,-100.0,-100.0,-100.0,-100.0,-100.0,-100.0,-100.0,-100.0,-100.0,-100.0,-100.0,-100.0,-100.0,-100.0,-100.0,-100.0,-100.0,-100.0,-100.0,-100.0,-100.0,-100.0,-100.0,-100.0,-100.0,-100.0,-100.0,-100.0,-100.0,-100.0,-100.0,-100.0,-100.0,-100.0,-100.0,-100.0,-100.0,-100.0,-100.0,-100.0,-100.0,-100.0,-100.0,-100.0,-100.0,-100.0,-100.0,-100.0,-100.0,-100.0,-100.0,-100.0,-100.0,-100.0,-100.0,-100.0,-100.0,-100.0,-100.0,-100.0,-100.0,-100.0,-100.0
2021.05.22 152332,23.0,24.0,38.314686921875,-1.0087499806249998,-35.3231244765625,-0.41438394384375,1.07308869453125,9.639392726562502,0.004867832356249999,-0.0016512448367187495,0.005464380543750001,-0.11078324366826561,0.042987963689483835,-1.4869940765202045,1001.9506117187499,-81.0,-100.0,-100.0,-87.0,-100.0,-100.0,-100.0,-70.0,-100.0,-82.0,-100.0,-100.0,-76.0,-75.0,-76.0,-44.0,-43.0,-49.0,-74.0,-57.0,-100.0,-83.0,-57.0,-65.0,-40.0,-53.0,-62.0,-100.0,-75.0,-76.0,-43.0,-43.0,-50.0,-72.0,-57.0,-100.0,-82.0,-65.0,-59.0,-65.0,-40.0,-54.0,-62.0,-100.0,-90.0,-100.0,-56.0,-56.0,-100.0,-63.0,-64.0,-63.0,-54.0,-100.0,-70.0,-64.0,-76.0,-100.0,-56.0,-100.0,-67.0,-78.0,-100.0,-100.0,-100.0,-100.0,-59.0,-100.0,-72.0,-100.0,-54.0,-60.0,-57.0,-100.0,-74.0,-72.0,-74.0,-73.0,-100.0,-100.0,-100.0,-73.0,-100.0,-100.0,-100.0,-100.0,-100.0,-100.0,-81.0,-69.0,-55.0,-86.0,-83.0,-100.0,-100.0,-100.0,-100.0,-100.0,-100.0,-100.0,-100.0,-100.0,-100.0,-100.0,-100.0,-100.0,-100.0,-100.0,-100.0,-100.0,-100.0,-100.0,-100.0,-100.0,-100.0,-100.0,-100.0,-100.0,-100.0,-100.0,-100.0,-100.0,-100.0,-100.0,-100.0,-100.0,-100.0,-100.0,-100.0,-100.0,-100.0,-100.0,-100.0,-100.0,-100.0,-100.0,-100.0,-100.0,-100.0,-100.0,-100.0,-100.0,-100.0,-100.0,-100.0,-100.0,-100.0,-100.0,-100.0,-100.0,-100.0,-100.0,-100.0
2021.05.22 152504,31.0,24.0,37.02562458125,2.1502499641874997,-26.060624525,-0.29258640943750003,0.9600599173749998,9.649081740625,-3.054328218750017e-05,-0.0049136474171875,0.006475171520937501,-0.09917921205051239,0.03033041418639182,-1.4380115270614624,1001.944425875,-88.0,-90.0,-73.0,-100.0,-100.0,-100.0,-100.0,-67.0,-100.0,-100.0,-100.0,-100.0,-70.0,-72.0,-100.0,-37.0,-46.0,-61.0,-79.0,-54.0,-69.0,-81.0,-58.0,-68.0,-38.0,-47.0,-61.0,-73.0,-73.0,-100.0,-37.0,-45.0,-59.0,-80.0,-56.0,-100.0,-80.0,-63.0,-58.0,-72.0,-38.0,-47.0,-61.0,-100.0,-100.0,-100.0,-57.0,-56.0,-100.0,-100.0,-69.0,-56.0,-56.0,-100.0,-66.0,-63.0,-72.0,-53.0,-56.0,-100.0,-66.0,-72.0,-100.0,-100.0,-100.0,-54.0,-66.0,-100.0,-68.0,-100.0,-100.0,-67.0,-100.0,-100.0,-100.0,-76.0,-100.0,-75.0,-100.0,-100.0,-100.0,-67.0,-100.0,-77.0,-100.0,-100.0,-100.0,-100.0,-81.0,-62.0,-53.0,-100.0,-100.0,-88.0,-87.0,-78.0,-100.0,-100.0,-100.0,-100.0,-100.0,-100.0,-100.0,-100.0,-100.0,-100.0,-100.0,-100.0,-100.0,-100.0,-100.0,-100.0,-100.0,-100.0,-100.0,-100.0,-100.0,-100.0,-100.0,-100.0,-100.0,-100.0,-100.0,-100.0,-100.0,-100.0,-100.0,-100.0,-100.0,-100.0,-100.0,-100.0,-100.0,-100.0,-100.0,-100.0,-100.0,-100.0,-100.0,-100.0,-100.0,-100.0,-100.0,-100.0,-100.0,-100.0,-100.0,-100.0,-100.0,-100.0,-100.0,-100.0,-100.0
2021.05.22 152515,32.0,24.0,39.50602366867469,1.449759016566265,-28.040240650602403,-0.22387228081325306,0.8268072683734939,9.664079749999999,-0.00048574836656626534,-0.005416829123192772,-0.0032125624545180716,-0.08530777643423479,0.023101016987035577,-1.4702792878610542,1001.9386110843373,-86.0,-100.0,-79.0,-100.0,-100.0,-100.0,-100.0,-62.0,-100.0,-100.0,-100.0,-100.0,-72.0,-60.0,-80.0,-60.0,-66.0,-69.0,-86.0,-52.0,-75.0,-82.0,-63.0,-67.0,-27.0,-46.0,-57.0,-72.0,-61.0,-83.0,-59.0,-66.0,-68.0,-85.0,-51.0,-77.0,-82.0,-68.0,-64.0,-68.0,-28.0,-46.0,-59.0,-100.0,-100.0,-100.0,-56.0,-55.0,-100.0,-100.0,-100.0,-66.0,-41.0,-100.0,-69.0,-69.0,-70.0,-65.0,-41.0,-100.0,-70.0,-71.0,-75.0,-100.0,-100.0,-40.0,-82.0,-100.0,-59.0,-100.0,-65.0,-100.0,-100.0,-100.0,-63.0,-86.0,-100.0,-85.0,-100.0,-100.0,-72.0,-100.0,-100.0,-100.0,-100.0,-100.0,-100.0,-100.0,-100.0,-85.0,-100.0,-100.0,-100.0,-100.0,-90.0,-100.0,-61.0,-70.0,-87.0,-88.0,-88.0,-100.0,-100.0,-100.0,-100.0,-100.0,-100.0,-100.0,-100.0,-100.0,-100.0,-100.0,-100.0,-100.0,-100.0,-100.0,-100.0,-100.0,-100.0,-100.0,-100.0,-100.0,-100.0,-100.0,-100.0,-100.0,-100.0,-100.0,-100.0,-100.0,-100.0,-100.0,-100.0,-100.0,-100.0,-100.0,-100.0,-100.0,-100.0,-100.0,-100.0,-100.0,-100.0,-100.0,-100.0,-100.0,-100.0,-100.0,-100.0,-100.0,-100.0,-100.0,-100.0
2021.05.22 152526,33.0,24.0,42.30202188764045,-2.018764008988764,-28.74202214044944,-0.40463353557865167,0.8515422173595506,9.662016171348315,0.0023610971452247193,-0.008212362460112359,-0.0023645289949438195,-0.08790413853241483,0.041870181124364345,-1.554529345437382,1001.9499689887642,-100.0,-100.0,-76.0,-100.0,-100.0,-100.0,-100.0,-59.0,-100.0,-100.0,-100.0,-100.0,-65.0,-55.0,-100.0,-100.0,-60.0,-68.0,-86.0,-54.0,-73.0,-100.0,-60.0,-68.0,-31.0,-46.0,-58.0,-66.0,-55.0,-100.0,-100.0,-62.0,-68.0,-85.0,-53.0,-74.0,-100.0,-58.0,-60.0,-67.0,-31.0,-47.0,-58.0,-100.0,-100.0,-100.0,-57.0,-57.0,-100.0,-100.0,-100.0,-69.0,-43.0,-100.0,-71.0,-58.0,-71.0,-69.0,-46.0,-100.0,-73.0,-73.0,-100.0,-100.0,-100.0,-44.0,-82.0,-100.0,-64.0,-100.0,-65.0,-100.0,-100.0,-100.0,-64.0,-100.0,-100.0,-100.0,-100.0,-100.0,-100.0,-100.0,-100.0,-100.0,-90.0,-100.0,-87.0,-100.0,-100.0,-76.0,-69.0,-100.0,-78.0,-100.0,-100.0,-82.0,-62.0,-100.0,-87.0,-87.0,-86.0,-80.0,-58.0,-77.0,-78.0,-86.0,-90.0,-100.0,-100.0,-100.0,-100.0,-100.0,-100.0,-100.0,-100.0,-100.0,-100.0,-100.0,-100.0,-100.0,-100.0,-100.0,-100.0,-100.0,-100.0,-100.0,-100.0,-100.0,-100.0,-100.0,-100.0,-100.0,-100.0,-100.0,-100.0,-100.0,-100.0,-100.0,-100.0,-100.0,-100.0,-100.0,-100.0,-100.0,-100.0,-100.0,-100.0,-100.0,-100.0,-100.0,-100.0,-100.0,-100.0
2021.05.22 152539,34.0,24.0,42.42639002366864,-7.270650734319526,-27.92840195266272,-0.41314854671597634,0.9875586232544378,9.641096041420118,0.0028880552656804733,-0.003853150127514793,-0.0007337612426035498,-0.10205935589836895,0.04275441465392352,-1.6724506200417963,1001.9365271005918,-100.0,-100.0,-100.0,-100.0,-100.0,-100.0,-100.0,-55.0,-100.0,-100.0,-100.0,-100.0,-69.0,-57.0,-100.0,-60.0,-67.0,-67.0,-100.0,-52.0,-71.0,-100.0,-60.0,-67.0,-24.0,-38.0,-64.0,-69.0,-57.0,-100.0,-62.0,-66.0,-67.0,-100.0,-51.0,-73.0,-100.0,-55.0,-60.0,-68.0,-23.0,-38.0,-61.0,-100.0,-100.0,-100.0,-57.0,-55.0,-100.0,-100.0,-100.0,-68.0,-39.0,-100.0,-72.0,-56.0,-64.0,-70.0,-40.0,-100.0,-71.0,-65.0,-85.0,-87.0,-100.0,-41.0,-80.0,-100.0,-65.0,-100.0,-62.0,-100.0,-61.0,-100.0,-65.0,-100.0,-100.0,-100.0,-100.0,-100.0,-79.0,-100.0,-100.0,-100.0,-88.0,-100.0,-100.0,-100.0,-100.0,-100.0,-100.0,-84.0,-100.0,-100.0,-100.0,-82.0,-100.0,-100.0,-86.0,-86.0,-84.0,-100.0,-100.0,-100.0,-80.0,-88.0,-100.0,-82.0,-100.0,-100.0,-100.0,-100.0,-100.0,-100.0,-100.0,-100.0,-100.0,-100.0,-100.0,-100.0,-100.0,-100.0,-100.0,-100.0,-100.0,-100.0,-100.0,-100.0,-100.0,-100.0,-100.0,-100.0,-100.0,-100.0,-100.0,-100.0,-100.0,-100.0,-100.0,-100.0,-100.0,-100.0,-100.0,-100.0,-100.0,-100.0,-100.0,-100.0,-100.0,-100.0,-100.0,-100.0,-100.0
2021.05.22 152722,43.0,24.0,27.724642494047618,2.9314285392857147,-24.59857120238095,-0.2735090410059524,1.0101393592261905,9.641136708333333,-0.002559816155952381,-0.0075194603258928565,0.006439537825595238,-0.104343449031668,0.028088255659288994,-1.3675252937135243,1001.9264692857143,-100.0,-100.0,-100.0,-100.0,-100.0,-100.0,-100.0,-83.0,-100.0,-100.0,-100.0,-100.0,-66.0,-68.0,-100.0,-67.0,-69.0,-83.0,-100.0,-54.0,-100.0,-100.0,-100.0,-69.0,-52.0,-68.0,-60.0,-66.0,-69.0,-100.0,-67.0,-69.0,-81.0,-100.0,-54.0,-100.0,-100.0,-43.0,-65.0,-68.0,-52.0,-68.0,-59.0,-100.0,-100.0,-100.0,-47.0,-47.0,-100.0,-100.0,-100.0,-100.0,-57.0,-100.0,-68.0,-43.0,-55.0,-100.0,-57.0,-100.0,-69.0,-54.0,-100.0,-100.0,-100.0,-100.0,-100.0,-100.0,-100.0,-100.0,-100.0,-100.0,-100.0,-100.0,-69.0,-100.0,-71.0,-100.0,-100.0,-100.0,-100.0,-100.0,-100.0,-100.0,-87.0,-100.0,-100.0,-100.0,-100.0,-100.0,-100.0,-65.0,-66.0,-90.0,-86.0,-100.0,-52.0,-100.0,-87.0,-87.0,-100.0,-66.0,-69.0,-100.0,-100.0,-100.0,-100.0,-61.0,-74.0,-64.0,-76.0,-76.0,-78.0,-50.0,-100.0,-100.0,-100.0,-100.0,-100.0,-100.0,-100.0,-100.0,-100.0,-100.0,-100.0,-100.0,-100.0,-100.0,-100.0,-100.0,-100.0,-100.0,-100.0,-100.0,-100.0,-100.0,-100.0,-100.0,-100.0,-100.0,-100.0,-100.0,-100.0,-100.0,-100.0,-100.0,-100.0,-100.0,-100.0,-100.0,-100.0,-100.0,-100.0
2021.05.22 152733,44.0,24.0,27.10295826035503,3.065325403550296,-23.89100566272189,-0.1709800023254438,1.0853242278698225,9.644793597633136,0.0020675438831360944,-0.009506364394674555,0.003708566300591715,-0.1120477514065934,0.01769647772558933,-1.357393309914854,1001.9380717159764,-100.0,-100.0,-100.0,-100.0,-100.0,-100.0,-100.0,-88.0,-100.0,-100.0,-100.0,-100.0,-67.0,-72.0,-85.0,-56.0,-68.0,-79.0,-88.0,-52.0,-75.0,-90.0,-100.0,-66.0,-56.0,-73.0,-66.0,-67.0,-71.0,-88.0,-58.0,-65.0,-76.0,-88.0,-51.0,-76.0,-100.0,-35.0,-62.0,-66.0,-57.0,-69.0,-68.0,-100.0,-100.0,-100.0,-54.0,-54.0,-100.0,-100.0,-100.0,-100.0,-59.0,-100.0,-65.0,-35.0,-48.0,-100.0,-58.0,-100.0,-65.0,-48.0,-70.0,-66.0,-100.0,-100.0,-100.0,-100.0,-87.0,-100.0,-100.0,-100.0,-100.0,-100.0,-72.0,-100.0,-72.0,-100.0,-100.0,-100.0,-100.0,-100.0,-100.0,-100.0,-87.0,-100.0,-85.0,-100.0,-100.0,-100.0,-100.0,-68.0,-74.0,-80.0,-78.0,-100.0,-51.0,-100.0,-100.0,-100.0,-100.0,-100.0,-100.0,-100.0,-100.0,-100.0,-100.0,-61.0,-80.0,-100.0,-81.0,-82.0,-80.0,-54.0,-88.0,-87.0,-84.0,-100.0,-100.0,-100.0,-100.0,-100.0,-100.0,-100.0,-100.0,-100.0,-100.0,-100.0,-100.0,-100.0,-100.0,-100.0,-100.0,-100.0,-100.0,-100.0,-100.0,-100.0,-100.0,-100.0,-100.0,-100.0,-100.0,-100.0,-100.0,-100.0,-100.0,-100.0,-100.0,-100.0,-100.0,-100.0,-100.0
2021.05.22 152745,45.0,24.0,27.125121670731705,3.673536525609756,-24.06475575609756,-0.20344874968292684,1.0223971249390245,9.645085323170733,-0.0018102469810975614,-0.0075091728332317064,0.0011733084548780485,-0.10562935875865014,0.02103819720739518,-1.3397585982229652,1001.929592987805,-100.0,-100.0,-100.0,-100.0,-100.0,-100.0,-100.0,-86.0,-100.0,-100.0,-100.0,-100.0,-63.0,-76.0,-100.0,-56.0,-64.0,-82.0,-100.0,-50.0,-100.0,-90.0,-100.0,-70.0,-61.0,-71.0,-65.0,-63.0,-78.0,-100.0,-56.0,-65.0,-81.0,-100.0,-49.0,-100.0,-100.0,-38.0,-64.0,-68.0,-58.0,-71.0,-66.0,-100.0,-100.0,-100.0,-51.0,-50.0,-100.0,-90.0,-100.0,-100.0,-64.0,-100.0,-65.0,-37.0,-48.0,-100.0,-63.0,-100.0,-66.0,-48.0,-74.0,-75.0,-100.0,-100.0,-100.0,-100.0,-100.0,-100.0,-100.0,-100.0,-100.0,-100.0,-68.0,-100.0,-65.0,-100.0,-100.0,-100.0,-100.0,-100.0,-100.0,-100.0,-86.0,-100.0,-100.0,-100.0,-100.0,-100.0,-100.0,-63.0,-73.0,-100.0,-90.0,-100.0,-53.0,-67.0,-100.0,-100.0,-100.0,-100.0,-100.0,-100.0,-100.0,-100.0,-100.0,-47.0,-77.0,-64.0,-79.0,-80.0,-74.0,-48.0,-100.0,-100.0,-100.0,-76.0,-100.0,-100.0,-100.0,-100.0,-100.0,-100.0,-100.0,-100.0,-100.0,-100.0,-100.0,-100.0,-100.0,-100.0,-100.0,-100.0,-100.0,-100.0,-100.0,-100.0,-100.0,-100.0,-100.0,-100.0,-100.0,-100.0,-100.0,-100.0,-100.0,-100.0,-100.0,-100.0,-100.0,-100.0,-100.0
2021.05.22 152910,52.0,24.0,29.931110716049385,3.4492592055555558,-17.735185061728398,-0.23457265018518517,1.0011310088271606,9.646401188271605,0.00236427445617284,-0.008570967111419754,0.0043854091117283955,-0.10349110258674175,0.02428948007420529,-1.3917208137335602,1001.9308886419752,-100.0,-100.0,-100.0,-100.0,-100.0,-100.0,-100.0,-88.0,-100.0,-100.0,-100.0,-100.0,-74.0,-80.0,-100.0,-58.0,-69.0,-84.0,-100.0,-56.0,-100.0,-100.0,-100.0,-69.0,-56.0,-71.0,-60.0,-73.0,-81.0,-100.0,-58.0,-69.0,-100.0,-100.0,-100.0,-80.0,-100.0,-32.0,-100.0,-71.0,-57.0,-71.0,-60.0,-100.0,-100.0,-100.0,-52.0,-50.0,-100.0,-100.0,-100.0,-100.0,-68.0,-100.0,-61.0,-31.0,-46.0,-100.0,-62.0,-100.0,-62.0,-48.0,-70.0,-100.0,-100.0,-100.0,-100.0,-100.0,-100.0,-100.0,-100.0,-100.0,-100.0,-100.0,-100.0,-100.0,-100.0,-100.0,-100.0,-100.0,-100.0,-100.0,-100.0,-100.0,-82.0,-100.0,-100.0,-100.0,-100.0,-100.0,-100.0,-63.0,-61.0,-100.0,-100.0,-100.0,-52.0,-100.0,-100.0,-100.0,-100.0,-100.0,-100.0,-100.0,-100.0,-100.0,-100.0,-53.0,-100.0,-66.0,-76.0,-76.0,-100.0,-63.0,-88.0,-81.0,-100.0,-79.0,-88.0,-87.0,-86.0,-85.0,-85.0,-86.0,-86.0,-100.0,-100.0,-100.0,-100.0,-100.0,-100.0,-100.0,-100.0,-100.0,-100.0,-100.0,-100.0,-100.0,-100.0,-100.0,-100.0,-100.0,-100.0,-100.0,-100.0,-100.0,-100.0,-100.0,-100.0,-100.0,-100.0,-100.0,-100.0
2021.05.22 152933,54.0,24.0,33.97293366467065,3.24538916766467,-16.957365017964076,-0.26663091767065866,0.913352106467066,9.651270700598804,0.005230762561976047,-0.00148509748982036,-0.0034640083134730537,-0.09440711950381354,0.027540901034490393,-1.4249122749545617,1001.950783473054,-100.0,-100.0,-100.0,-100.0,-100.0,-100.0,-100.0,-100.0,-100.0,-100.0,-100.0,-100.0,-52.0,-86.0,-100.0,-63.0,-73.0,-100.0,-100.0,-55.0,-76.0,-100.0,-100.0,-68.0,-66.0,-68.0,-51.0,-51.0,-85.0,-100.0,-63.0,-75.0,-100.0,-100.0,-56.0,-74.0,-100.0,-56.0,-68.0,-71.0,-64.0,-69.0,-49.0,-100.0,-100.0,-100.0,-41.0,-41.0,-100.0,-100.0,-100.0,-100.0,-73.0,-100.0,-65.0,-56.0,-66.0,-100.0,-71.0,-100.0,-65.0,-65.0,-64.0,-61.0,-100.0,-100.0,-100.0,-100.0,-100.0,-100.0,-100.0,-100.0,-100.0,-100.0,-80.0,-100.0,-80.0,-100.0,-100.0,-100.0,-100.0,-100.0,-100.0,-100.0,-78.0,-100.0,-100.0,-100.0,-100.0,-100.0,-100.0,-100.0,-100.0,-73.0,-73.0,-100.0,-46.0,-56.0,-100.0,-100.0,-100.0,-100.0,-100.0,-100.0,-100.0,-100.0,-100.0,-100.0,-100.0,-53.0,-82.0,-79.0,-64.0,-100.0,-100.0,-69.0,-100.0,-100.0,-100.0,-100.0,-100.0,-100.0,-100.0,-100.0,-76.0,-84.0,-90.0,-83.0,-84.0,-87.0,-100.0,-100.0,-100.0,-100.0,-100.0,-100.0,-100.0,-100.0,-100.0,-100.0,-100.0,-100.0,-100.0,-100.0,-100.0,-100.0,-100.0,-100.0,-100.0,-100.0,-100.0,-100.0,-100.0
2021.05.22 152945,55.0,24.0,34.201064621301775,-0.8048520536686391,-16.224851863905325,-0.4028208937337278,1.0840917065088758,9.636874349112427,0.001406074446153846,-0.0047676407079881656,-0.0021615232218934913,-0.1119551033486981,0.04179017114888365,-1.5356664643485165,1001.9410963313609,-100.0,-100.0,-100.0,-100.0,-100.0,-100.0,-100.0,-100.0,-100.0,-100.0,-100.0,-100.0,-51.0,-88.0,-100.0,-62.0,-72.0,-84.0,-100.0,-49.0,-100.0,-100.0,-100.0,-70.0,-62.0,-75.0,-48.0,-51.0,-90.0,-100.0,-62.0,-73.0,-100.0,-100.0,-48.0,-77.0,-100.0,-100.0,-71.0,-70.0,-100.0,-76.0,-46.0,-100.0,-100.0,-100.0,-34.0,-33.0,-100.0,-100.0,-100.0,-100.0,-100.0,-100.0,-67.0,-100.0,-72.0,-100.0,-100.0,-100.0,-68.0,-72.0,-63.0,-63.0,-100.0,-100.0,-100.0,-100.0,-100.0,-100.0,-100.0,-100.0,-100.0,-100.0,-88.0,-100.0,-100.0,-100.0,-100.0,-100.0,-100.0,-100.0,-100.0,-100.0,-73.0,-100.0,-100.0,-100.0,-100.0,-100.0,-100.0,-100.0,-100.0,-80.0,-80.0,-100.0,-49.0,-52.0,-100.0,-100.0,-100.0,-100.0,-100.0,-100.0,-100.0,-68.0,-100.0,-73.0,-100.0,-53.0,-87.0,-85.0,-66.0,-100.0,-100.0,-67.0,-100.0,-100.0,-78.0,-100.0,-100.0,-100.0,-100.0,-100.0,-100.0,-74.0,-100.0,-82.0,-83.0,-90.0,-82.0,-64.0,-60.0,-90.0,-85.0,-100.0,-100.0,-100.0,-100.0,-100.0,-100.0,-100.0,-100.0,-100.0,-100.0,-100.0,-100.0,-100.0,-100.0,-100.0,-100.0,-100.0,-100.0
2021.05.22 152957,56.0,24.0,32.34423477058823,-2.4109411411764707,-16.556470411764707,-0.22984336181941178,0.8808690539999999,9.655435170588236,0.0038089244935294113,-0.0024542411417647057,0.003039953080882353,-0.09100327636389167,0.02376313591410183,-1.5964899329578175,1001.9349163529412,-100.0,-100.0,-100.0,-100.0,-100.0,-100.0,-100.0,-100.0,-100.0,-100.0,-100.0,-100.0,-59.0,-90.0,-100.0,-60.0,-76.0,-86.0,-100.0,-54.0,-100.0,-100.0,-100.0,-73.0,-100.0,-75.0,-52.0,-59.0,-100.0,-100.0,-64.0,-77.0,-84.0,-100.0,-54.0,-100.0,-100.0,-57.0,-65.0,-72.0,-67.0,-75.0,-50.0,-100.0,-100.0,-100.0,-44.0,-43.0,-100.0,-100.0,-100.0,-100.0,-81.0,-100.0,-68.0,-57.0,-73.0,-100.0,-81.0,-100.0,-68.0,-74.0,-61.0,-61.0,-100.0,-100.0,-100.0,-100.0,-100.0,-100.0,-100.0,-100.0,-100.0,-100.0,-100.0,-100.0,-100.0,-100.0,-100.0,-100.0,-100.0,-100.0,-100.0,-100.0,-78.0,-100.0,-100.0,-100.0,-100.0,-100.0,-100.0,-100.0,-100.0,-70.0,-68.0,-100.0,-56.0,-49.0,-100.0,-100.0,-100.0,-100.0,-100.0,-100.0,-100.0,-100.0,-100.0,-74.0,-100.0,-54.0,-100.0,-100.0,-63.0,-100.0,-100.0,-74.0,-100.0,-100.0,-78.0,-100.0,-100.0,-100.0,-100.0,-100.0,-73.0,-80.0,-100.0,-80.0,-80.0,-88.0,-100.0,-68.0,-62.0,-87.0,-100.0,-88.0,-88.0,-100.0,-100.0,-100.0,-100.0,-100.0,-100.0,-100.0,-100.0,-100.0,-100.0,-100.0,-100.0,-100.0,-100.0,-100.0,-100.0
2021.05.22 153116,63.0,24.0,33.61527225454546,2.4294545103030303,-20.749817981818182,-0.33288109852121206,0.869516013878788,9.658209642424245,0.0008700201960606058,-0.008130061046666666,-0.0008848289709090911,-0.08977465914054346,0.0343391496582295,-1.438178529883876,1001.9285896969697,-100.0,-100.0,-100.0,-100.0,-100.0,-100.0,-100.0,-100.0,-100.0,-100.0,-100.0,-100.0,-48.0,-100.0,-100.0,-61.0,-75.0,-100.0,-100.0,-56.0,-100.0,-100.0,-100.0,-74.0,-100.0,-74.0,-43.0,-48.0,-100.0,-100.0,-62.0,-75.0,-100.0,-100.0,-56.0,-100.0,-100.0,-56.0,-62.0,-73.0,-100.0,-75.0,-42.0,-100.0,-100.0,-100.0,-33.0,-32.0,-100.0,-100.0,-100.0,-100.0,-100.0,-100.0,-68.0,-59.0,-78.0,-100.0,-100.0,-100.0,-69.0,-76.0,-56.0,-57.0,-100.0,-100.0,-100.0,-100.0,-100.0,-100.0,-100.0,-100.0,-87.0,-100.0,-100.0,-100.0,-82.0,-100.0,-100.0,-100.0,-100.0,-100.0,-100.0,-100.0,-80.0,-100.0,-84.0,-100.0,-100.0,-100.0,-100.0,-100.0,-100.0,-73.0,-74.0,-100.0,-49.0,-47.0,-100.0,-100.0,-100.0,-100.0,-100.0,-100.0,-100.0,-64.0,-100.0,-83.0,-100.0,-49.0,-100.0,-100.0,-69.0,-100.0,-100.0,-65.0,-100.0,-100.0,-77.0,-100.0,-100.0,-100.0,-100.0,-100.0,-100.0,-73.0,-100.0,-81.0,-81.0,-82.0,-100.0,-69.0,-59.0,-84.0,-100.0,-79.0,-100.0,-100.0,-100.0,-100.0,-100.0,-100.0,-100.0,-100.0,-100.0,-100.0,-100.0,-100.0,-100.0,-100.0,-100.0,-100.0,-100.0
2021.05.22 153139,65.0,24.0,44.14621063975156,6.01826079068323,-20.479378708074535,-0.2293674968819876,0.9076255051552793,9.655309832298137,0.001935038980745341,-0.005607818851242235,0.0032288591602484466,-0.09371638043511726,0.023768420276226235,-1.3892556776911575,1001.9319537888199,-100.0,-100.0,-100.0,-100.0,-100.0,-100.0,-100.0,-100.0,-100.0,-100.0,-100.0,-100.0,-49.0,-100.0,-100.0,-60.0,-79.0,-84.0,-100.0,-41.0,-75.0,-100.0,-100.0,-72.0,-100.0,-76.0,-54.0,-53.0,-100.0,-100.0,-64.0,-78.0,-100.0,-100.0,-40.0,-75.0,-100.0,-88.0,-100.0,-72.0,-100.0,-76.0,-50.0,-100.0,-100.0,-100.0,-40.0,-39.0,-100.0,-100.0,-100.0,-100.0,-100.0,-100.0,-63.0,-67.0,-88.0,-100.0,-73.0,-100.0,-63.0,-86.0,-100.0,-100.0,-100.0,-100.0,-100.0,-100.0,-100.0,-100.0,-100.0,-100.0,-100.0,-100.0,-100.0,-100.0,-100.0,-100.0,-100.0,-100.0,-100.0,-100.0,-100.0,-100.0,-64.0,-100.0,-100.0,-100.0,-100.0,-100.0,-100.0,-100.0,-100.0,-62.0,-62.0,-55.0,-61.0,-100.0,-100.0,-100.0,-100.0,-100.0,-100.0,-100.0,-100.0,-100.0,-72.0,-100.0,-100.0,-57.0,-100.0,-100.0,-57.0,-100.0,-100.0,-57.0,-100.0,-100.0,-76.0,-100.0,-100.0,-100.0,-100.0,-100.0,-65.0,-100.0,-100.0,-77.0,-77.0,-75.0,-100.0,-57.0,-100.0,-73.0,-73.0,-82.0,-81.0,-86.0,-83.0,-88.0,-85.0,-100.0,-100.0,-100.0,-100.0,-100.0,-100.0,-100.0,-100.0,-100.0,-100.0,-100.0,-100.0
2021.05.22 153150,66.0,24.0,42.97898672784809,4.838354364556962,-24.172025056962024,-0.28819824138607597,0.7983298849367088,9.663998139240505,0.004538960575632912,-0.00753142725,-0.004740005089240506,-0.08242489399883561,0.029728273463235016,-1.4084205159658119,1001.9386979746835,-100.0,-100.0,-88.0,-100.0,-100.0,-100.0,-100.0,-100.0,-100.0,-100.0,-100.0,-100.0,-57.0,-100.0,-100.0,-63.0,-76.0,-100.0,-100.0,-43.0,-100.0,-100.0,-100.0,-73.0,-100.0,-74.0,-57.0,-57.0,-100.0,-100.0,-63.0,-76.0,-100.0,-100.0,-43.0,-100.0,-100.0,-70.0,-68.0,-73.0,-100.0,-74.0,-57.0,-100.0,-100.0,-100.0,-45.0,-45.0,-100.0,-100.0,-100.0,-100.0,-100.0,-100.0,-67.0,-69.0,-83.0,-100.0,-100.0,-100.0,-67.0,-83.0,-63.0,-100.0,-100.0,-100.0,-100.0,-100.0,-100.0,-100.0,-100.0,-100.0,-100.0,-100.0,-100.0,-100.0,-100.0,-100.0,-100.0,-100.0,-100.0,-100.0,-100.0,-100.0,-61.0,-100.0,-100.0,-100.0,-100.0,-100.0,-100.0,-100.0,-100.0,-66.0,-66.0,-51.0,-63.0,-58.0,-100.0,-100.0,-100.0,-100.0,-100.0,-100.0,-100.0,-100.0,-100.0,-100.0,-100.0,-57.0,-100.0,-100.0,-56.0,-100.0,-100.0,-61.0,-100.0,-100.0,-82.0,-100.0,-100.0,-100.0,-100.0,-100.0,-60.0,-100.0,-100.0,-100.0,-100.0,-75.0,-100.0,-60.0,-100.0,-70.0,-100.0,-100.0,-78.0,-100.0,-78.0,-100.0,-78.0,-89.0,-100.0,-100.0,-100.0,-100.0,-100.0,-100.0,-100.0,-100.0,-100.0,-100.0,-100.0
2021.05.22 153201,67.0,24.0,45.6233325617284,-0.6251851677777778,-26.45629585802469,-0.3143202575555556,0.8446654895061728,9.660263919753087,0.002096549916358025,-0.008616216554320986,-0.0008635068938271609,-0.08717772153056694,0.032542109273856944,-1.5302643878960316,1001.9437224691359,-100.0,-100.0,-100.0,-100.0,-100.0,-100.0,-100.0,-100.0,-100.0,-100.0,-100.0,-100.0,-48.0,-100.0,-100.0,-65.0,-76.0,-86.0,-100.0,-47.0,-100.0,-88.0,-100.0,-76.0,-69.0,-74.0,-57.0,-47.0,-100.0,-100.0,-65.0,-76.0,-90.0,-100.0,-46.0,-100.0,-100.0,-88.0,-63.0,-75.0,-68.0,-75.0,-57.0,-100.0,-100.0,-100.0,-39.0,-39.0,-100.0,-100.0,-100.0,-100.0,-100.0,-100.0,-58.0,-70.0,-80.0,-100.0,-100.0,-100.0,-58.0,-82.0,-67.0,-100.0,-100.0,-100.0,-100.0,-100.0,-100.0,-100.0,-100.0,-100.0,-100.0,-100.0,-100.0,-100.0,-100.0,-100.0,-100.0,-100.0,-100.0,-100.0,-100.0,-100.0,-63.0,-100.0,-100.0,-100.0,-100.0,-100.0,-100.0,-100.0,-100.0,-68.0,-68.0,-51.0,-100.0,-58.0,-100.0,-100.0,-100.0,-100.0,-100.0,-100.0,-100.0,-100.0,-74.0,-100.0,-100.0,-100.0,-100.0,-100.0,-54.0,-100.0,-100.0,-50.0,-100.0,-100.0,-78.0,-100.0,-100.0,-100.0,-100.0,-100.0,-58.0,-77.0,-88.0,-100.0,-100.0,-78.0,-73.0,-64.0,-100.0,-67.0,-100.0,-88.0,-74.0,-90.0,-100.0,-87.0,-100.0,-100.0,-69.0,-100.0,-100.0,-100.0,-100.0,-100.0,-100.0,-100.0,-100.0,-100.0,-100.0
2021.05.22 153318,74.0,24.0,43.755668203821664,5.908280158598726,-23.34152839490446,-0.4030493681401274,0.7114133982802547,9.666108958598725,-0.0009532610802547768,-0.004785759656369426,0.0019065220057324845,-0.07343613287540754,0.0416383961108839,-1.3916789095872526,1001.9172124203823,-100.0,-100.0,-100.0,-100.0,-100.0,-100.0,-100.0,-100.0,-100.0,-100.0,-100.0,-100.0,-51.0,-100.0,-100.0,-70.0,-76.0,-100.0,-100.0,-53.0,-100.0,-100.0,-100.0,-77.0,-69.0,-76.0,-57.0,-50.0,-100.0,-100.0,-68.0,-76.0,-100.0,-100.0,-56.0,-100.0,-90.0,-71.0,-100.0,-75.0,-67.0,-77.0,-55.0,-100.0,-100.0,-100.0,-47.0,-47.0,-100.0,-100.0,-100.0,-100.0,-100.0,-100.0,-62.0,-70.0,-83.0,-100.0,-100.0,-100.0,-62.0,-84.0,-67.0,-68.0,-100.0,-100.0,-100.0,-100.0,-100.0,-100.0,-100.0,-100.0,-100.0,-100.0,-100.0,-100.0,-100.0,-100.0,-100.0,-100.0,-100.0,-100.0,-100.0,-100.0,-64.0,-100.0,-76.0,-100.0,-100.0,-100.0,-100.0,-100.0,-100.0,-71.0,-70.0,-50.0,-100.0,-58.0,-100.0,-100.0,-100.0,-100.0,-100.0,-100.0,-100.0,-100.0,-77.0,-100.0,-100.0,-63.0,-100.0,-100.0,-57.0,-100.0,-100.0,-51.0,-76.0,-100.0,-83.0,-100.0,-100.0,-100.0,-100.0,-100.0,-65.0,-69.0,-90.0,-84.0,-83.0,-78.0,-78.0,-62.0,-75.0,-64.0,-100.0,-90.0,-73.0,-100.0,-81.0,-88.0,-81.0,-100.0,-100.0,-84.0,-100.0,-100.0,-100.0,-100.0,-100.0,-100.0,-100.0,-100.0,-100.0
2021.05.22 153339,76.0,24.0,43.63319937333333,4.801999923333333,-21.892799746666665,-0.35142092610000003,0.7104394477999999,9.666429726666665,-0.000566068382333333,-0.007904596243333334,0.002944370437,-0.07332090442379313,0.036311946107695454,-1.4199116571744284,1001.9026133333331,-100.0,-100.0,-100.0,-100.0,-100.0,-100.0,-100.0,-100.0,-100.0,-100.0,-100.0,-100.0,-69.0,-100.0,-100.0,-69.0,-75.0,-100.0,-100.0,-42.0,-100.0,-100.0,-67.0,-76.0,-70.0,-78.0,-64.0,-69.0,-100.0,-100.0,-69.0,-74.0,-100.0,-100.0,-42.0,-100.0,-100.0,-80.0,-68.0,-78.0,-68.0,-80.0,-64.0,-100.0,-100.0,-100.0,-57.0,-57.0,-100.0,-100.0,-100.0,-100.0,-100.0,-100.0,-48.0,-81.0,-87.0,-100.0,-100.0,-100.0,-47.0,-88.0,-70.0,-70.0,-100.0,-100.0,-100.0,-100.0,-100.0,-100.0,-100.0,-100.0,-100.0,-100.0,-100.0,-100.0,-100.0,-100.0,-100.0,-100.0,-100.0,-100.0,-100.0,-100.0,-79.0,-100.0,-62.0,-100.0,-100.0,-100.0,-100.0,-100.0,-100.0,-100.0,-90.0,-63.0,-74.0,-73.0,-100.0,-100.0,-100.0,-100.0,-100.0,-100.0,-100.0,-100.0,-63.0,-100.0,-100.0,-100.0,-100.0,-100.0,-70.0,-100.0,-100.0,-66.0,-63.0,-100.0,-100.0,-100.0,-100.0,-100.0,-100.0,-100.0,-66.0,-90.0,-74.0,-100.0,-100.0,-100.0,-100.0,-100.0,-100.0,-86.0,-100.0,-100.0,-72.0,-100.0,-69.0,-75.0,-67.0,-100.0,-72.0,-100.0,-80.0,-85.0,-83.0,-75.0,-86.0,-82.0,-75.0,-100.0,-100.0
2021.05.22 153400,78.0,24.0,42.01708817088607,7.214050528481013,-28.859999575949367,-0.39525542468354435,0.6228258175316457,9.669983658227848,0.002640638932278481,-0.005026106453481014,0.0009278966196202536,-0.06428416322067941,0.04086575231844956,-1.3498268919655039,1001.9142012025316,-100.0,-100.0,-100.0,-100.0,-100.0,-100.0,-100.0,-100.0,-100.0,-100.0,-100.0,-100.0,-100.0,-100.0,-100.0,-70.0,-75.0,-100.0,-100.0,-37.0,-100.0,-100.0,-72.0,-78.0,-69.0,-80.0,-68.0,-100.0,-100.0,-100.0,-70.0,-75.0,-100.0,-100.0,-38.0,-100.0,-100.0,-78.0,-72.0,-79.0,-66.0,-82.0,-70.0,-100.0,-100.0,-100.0,-58.0,-57.0,-100.0,-100.0,-100.0,-100.0,-100.0,-100.0,-47.0,-80.0,-100.0,-100.0,-100.0,-100.0,-47.0,-100.0,-81.0,-100.0,-100.0,-100.0,-100.0,-100.0,-100.0,-100.0,-100.0,-100.0,-100.0,-100.0,-100.0,-100.0,-100.0,-100.0,-100.0,-100.0,-100.0,-100.0,-100.0,-100.0,-83.0,-100.0,-48.0,-100.0,-100.0,-100.0,-100.0,-100.0,-100.0,-87.0,-90.0,-72.0,-76.0,-79.0,-100.0,-100.0,-100.0,-100.0,-100.0,-100.0,-100.0,-100.0,-63.0,-100.0,-100.0,-100.0,-100.0,-100.0,-100.0,-100.0,-100.0,-74.0,-47.0,-100.0,-100.0,-100.0,-100.0,-100.0,-100.0,-100.0,-60.0,-100.0,-57.0,-100.0,-100.0,-100.0,-100.0,-79.0,-100.0,-100.0,-63.0,-100.0,-81.0,-100.0,-66.0,-58.0,-66.0,-79.0,-57.0,-78.0,-73.0,-88.0,-82.0,-70.0,-88.0,-100.0,-69.0,-100.0,-100.0
2021.05.22 153410,79.0,24.0,44.4506019939759,6.529517970481928,-28.252047777108437,-0.40663929383132535,0.792581716686747,9.660488427710844,0.001998191746385542,-0.00815100306957831,-0.0009678165749999996,-0.08183347714324309,0.042028796309268576,-1.3661780163466213,1001.9201887951808,-100.0,-100.0,-100.0,-100.0,-100.0,-100.0,-100.0,-100.0,-100.0,-100.0,-100.0,-100.0,-68.0,-100.0,-100.0,-71.0,-76.0,-100.0,-100.0,-26.0,-100.0,-100.0,-66.0,-76.0,-69.0,-82.0,-73.0,-68.0,-100.0,-100.0,-70.0,-78.0,-100.0,-100.0,-25.0,-100.0,-100.0,-79.0,-67.0,-77.0,-70.0,-82.0,-74.0,-100.0,-100.0,-100.0,-56.0,-56.0,-100.0,-100.0,-100.0,-100.0,-82.0,-100.0,-36.0,-79.0,-100.0,-100.0,-100.0,-100.0,-36.0,-100.0,-81.0,-81.0,-100.0,-100.0,-100.0,-100.0,-100.0,-100.0,-100.0,-100.0,-100.0,-100.0,-100.0,-100.0,-100.0,-100.0,-100.0,-100.0,-100.0,-100.0,-100.0,-100.0,-100.0,-100.0,-54.0,-100.0,-100.0,-100.0,-100.0,-100.0,-100.0,-100.0,-100.0,-100.0,-100.0,-100.0,-100.0,-100.0,-100.0,-100.0,-100.0,-100.0,-100.0,-100.0,-59.0,-100.0,-100.0,-100.0,-100.0,-100.0,-73.0,-100.0,-100.0,-76.0,-54.0,-100.0,-100.0,-100.0,-100.0,-100.0,-100.0,-100.0,-68.0,-100.0,-59.0,-100.0,-100.0,-100.0,-100.0,-86.0,-100.0,-100.0,-58.0,-100.0,-76.0,-100.0,-68.0,-60.0,-69.0,-78.0,-58.0,-78.0,-75.0,-88.0,-80.0,-77.0,-87.0,-81.0,-78.0,-87.0,-86.0
2021.05.22 153530,85.0,24.0,47.762839426035505,1.0579881402366862,-24.413609224852074,-0.28587334951893495,0.8407898010059172,9.661510573964497,0.0037519414301775142,-0.0051507867446745565,0.0023277941630177514,-0.08681477253606329,0.029601466396483193,-1.5007989082110704,1001.928500118343,-100.0,-100.0,-100.0,-100.0,-100.0,-100.0,-100.0,-100.0,-100.0,-100.0,-100.0,-100.0,-78.0,-100.0,-100.0,-71.0,-75.0,-100.0,-100.0,-26.0,-74.0,-100.0,-69.0,-79.0,-71.0,-82.0,-73.0,-76.0,-100.0,-100.0,-72.0,-75.0,-100.0,-100.0,-26.0,-74.0,-100.0,-81.0,-68.0,-80.0,-70.0,-81.0,-74.0,-100.0,-100.0,-100.0,-57.0,-56.0,-100.0,-100.0,-100.0,-100.0,-100.0,-100.0,-34.0,-81.0,-100.0,-100.0,-100.0,-100.0,-34.0,-100.0,-81.0,-80.0,-100.0,-100.0,-100.0,-100.0,-100.0,-100.0,-100.0,-100.0,-100.0,-100.0,-100.0,-100.0,-100.0,-100.0,-100.0,-100.0,-100.0,-100.0,-100.0,-100.0,-88.0,-100.0,-57.0,-100.0,-100.0,-100.0,-100.0,-100.0,-100.0,-100.0,-100.0,-100.0,-100.0,-100.0,-100.0,-100.0,-100.0,-100.0,-100.0,-100.0,-100.0,-100.0,-62.0,-100.0,-100.0,-100.0,-100.0,-100.0,-100.0,-100.0,-100.0,-71.0,-58.0,-100.0,-100.0,-100.0,-100.0,-100.0,-100.0,-100.0,-70.0,-100.0,-62.0,-100.0,-100.0,-100.0,-100.0,-100.0,-100.0,-100.0,-62.0,-100.0,-70.0,-100.0,-69.0,-63.0,-70.0,-100.0,-63.0,-100.0,-80.0,-100.0,-85.0,-100.0,-100.0,-100.0,-100.0,-100.0,-100.0
2021.05.22 153541,86.0,24.0,46.14776402352941,-0.3977646894117646,-27.64552910588235,-0.15787647612470587,0.6466034640588236,9.674842288235295,0.0017212027797058823,-0.005796033126470587,0.0067877908164705875,-0.06681031698689736,0.016248469694811973,-1.5378917687079485,1001.9272908235295,-100.0,-100.0,-100.0,-100.0,-100.0,-100.0,-100.0,-100.0,-100.0,-100.0,-100.0,-100.0,-73.0,-100.0,-100.0,-74.0,-78.0,-100.0,-100.0,-39.0,-78.0,-100.0,-76.0,-80.0,-100.0,-85.0,-73.0,-73.0,-100.0,-100.0,-100.0,-78.0,-100.0,-100.0,-39.0,-79.0,-100.0,-76.0,-75.0,-80.0,-100.0,-84.0,-72.0,-100.0,-100.0,-100.0,-64.0,-64.0,-100.0,-100.0,-100.0,-100.0,-100.0,-100.0,-59.0,-75.0,-100.0,-100.0,-100.0,-100.0,-59.0,-100.0,-100.0,-87.0,-100.0,-100.0,-100.0,-100.0,-100.0,-100.0,-100.0,-100.0,-100.0,-100.0,-100.0,-100.0,-100.0,-100.0,-100.0,-100.0,-100.0,-100.0,-100.0,-100.0,-100.0,-100.0,-78.0,-100.0,-100.0,-100.0,-100.0,-100.0,-100.0,-100.0,-100.0,-100.0,-100.0,-76.0,-100.0,-100.0,-100.0,-100.0,-100.0,-100.0,-100.0,-100.0,-65.0,-100.0,-100.0,-100.0,-100.0,-100.0,-100.0,-100.0,-100.0,-100.0,-75.0,-100.0,-100.0,-100.0,-100.0,-100.0,-100.0,-100.0,-78.0,-100.0,-100.0,-100.0,-100.0,-100.0,-100.0,-100.0,-100.0,-100.0,-66.0,-100.0,-100.0,-100.0,-100.0,-100.0,-100.0,-100.0,-77.0,-100.0,-100.0,-100.0,-77.0,-100.0,-100.0,-77.0,-100.0,-100.0,-100.0
2021.05.22 153603,88.0,24.0,45.86550823353293,-2.1434730195808385,-30.22419123353293,-0.29045824169461076,0.7275219101197604,9.665220170658682,-0.0009291004793413168,-0.004806448752994011,-0.002640986341616767,-0.07513438470795479,0.02999755671850127,-1.5655148578975016,1001.9123978443115,-100.0,-100.0,-100.0,-100.0,-100.0,-100.0,-100.0,-100.0,-100.0,-100.0,-100.0,-100.0,-75.0,-100.0,-100.0,-67.0,-78.0,-100.0,-100.0,-40.0,-84.0,-100.0,-71.0,-78.0,-76.0,-81.0,-73.0,-75.0,-100.0,-100.0,-67.0,-78.0,-88.0,-100.0,-41.0,-85.0,-100.0,-74.0,-71.0,-78.0,-76.0,-80.0,-72.0,-100.0,-100.0,-100.0,-61.0,-61.0,-100.0,-100.0,-100.0,-100.0,-84.0,-100.0,-55.0,-75.0,-100.0,-100.0,-85.0,-100.0,-54.0,-100.0,-100.0,-100.0,-100.0,-100.0,-100.0,-100.0,-100.0,-100.0,-100.0,-100.0,-100.0,-100.0,-100.0,-100.0,-100.0,-100.0,-100.0,-100.0,-100.0,-100.0,-100.0,-100.0,-100.0,-100.0,-100.0,-100.0,-100.0,-100.0,-100.0,-100.0,-100.0,-100.0,-100.0,-100.0,-100.0,-100.0,-100.0,-100.0,-100.0,-100.0,-100.0,-100.0,-100.0,-100.0,-70.0,-100.0,-100.0,-100.0,-100.0,-100.0,-100.0,-100.0,-100.0,-78.0,-100.0,-100.0,-100.0,-100.0,-100.0,-100.0,-100.0,-100.0,-100.0,-100.0,-100.0,-100.0,-100.0,-100.0,-100.0,-100.0,-100.0,-100.0,-70.0,-100.0,-100.0,-100.0,-78.0,-100.0,-78.0,-100.0,-100.0,-100.0,-100.0,-100.0,-80.0,-100.0,-100.0,-79.0,-100.0,-100.0,-100.0
2021.05.22 153614,89.0,24.0,46.44629553703703,-6.002592490123457,-31.848147567901236,-0.11467043838271605,0.6666226056172839,9.673683234567902,-0.0010708993700617292,-0.002424607058950617,-0.001964572806790123,-0.06887408750660622,0.011837604815315674,-1.6521191972273368,1001.910542222222,-100.0,-100.0,-100.0,-100.0,-100.0,-100.0,-100.0,-100.0,-100.0,-100.0,-100.0,-100.0,-77.0,-100.0,-100.0,-68.0,-78.0,-100.0,-100.0,-46.0,-100.0,-100.0,-68.0,-81.0,-68.0,-83.0,-77.0,-76.0,-100.0,-100.0,-68.0,-77.0,-100.0,-100.0,-45.0,-100.0,-100.0,-78.0,-68.0,-81.0,-68.0,-83.0,-76.0,-100.0,-100.0,-100.0,-56.0,-56.0,-100.0,-100.0,-100.0,-100.0,-100.0,-100.0,-68.0,-78.0,-100.0,-100.0,-100.0,-100.0,-66.0,-100.0,-100.0,-100.0,-100.0,-100.0,-100.0,-100.0,-100.0,-100.0,-100.0,-100.0,-100.0,-100.0,-100.0,-100.0,-100.0,-100.0,-100.0,-100.0,-100.0,-100.0,-100.0,-100.0,-100.0,-100.0,-100.0,-100.0,-100.0,-100.0,-100.0,-100.0,-100.0,-100.0,-100.0,-100.0,-100.0,-100.0,-100.0,-100.0,-100.0,-100.0,-100.0,-100.0,-100.0,-100.0,-68.0,-100.0,-100.0,-100.0,-100.0,-100.0,-86.0,-100.0,-100.0,-100.0,-100.0,-100.0,-100.0,-100.0,-100.0,-100.0,-100.0,-100.0,-76.0,-100.0,-100.0,-100.0,-100.0,-100.0,-100.0,-100.0,-100.0,-100.0,-69.0,-100.0,-100.0,-100.0,-84.0,-100.0,-85.0,-100.0,-100.0,-100.0,-100.0,-100.0,-84.0,-100.0,-100.0,-84.0,-100.0,-100.0,-100.0
