Timestamp,True_X,True_Y,Mean_Mag_x,Mean_Mag_y,Mean_Mag_z,Mean_Acc_x,Mean_Acc_y,Mean_Acc_z,Mean_Gyro_x,Mean_Gyro_y,Mean_Gyro_z,Mean_Orn_x,Mean_Orn_y,Mean_Orn_z,Mean_Pressure,00:1a:be:a0:de:39,00:1a:be:a0:de:52,00:1a:be:a0:de:64,00:1a:be:a0:de:72,00:1a:be:a0:de:73,00:1a:be:a0:de:89,00:1a:be:a0:de:90,00:1a:be:a0:de:91,00:1a:be:a0:de:92,00:1a:be:a0:de:93,00:1a:be:a0:de:94,00:1a:be:a0:de:95,00:1a:be:a0:de:96,00:1a:be:a0:df:01,00:1a:be:a0:df:02,00:1a:be:a0:df:03,00:1a:be:a0:df:08,00:1a:be:a0:df:11,00:1a:be:a0:df:20,00:1a:be:a0:df:22,00:1a:be:a0:df:28,00:1a:be:a0:df:29,00:1a:be:a0:df:36,00:1a:be:a0:df:45,00:1a:be:a0:df:46,00:1a:be:a0:df:47,00:1a:be:a0:df:48,00:1a:be:a0:df:49,00:1a:be:a0:df:50,00:1a:be:a0:df:51,00:1a:be:a0:df:52,00:1a:be:a0:df:56,00:1a:be:a0:df:57,00:1a:be:a0:df:58,00:1a:be:a0:df:64,00:1a:be:a0:df:67,00:1a:be:a0:df:73,00:1a:be:a0:df:75,00:1a:be:a0:de:40,00:1a:be:a0:de:43,00:1a:be:a0:de:53,00:1a:be:a0:de:66,00:1a:be:a0:df:12,00:1a:be:a0:df:68,00:1a:be:a0:df:74,00:1a:be:a0:de:80,00:1a:be:a0:de:37,00:1a:be:a0:de:48,00:1a:be:a0:df:13,00:1a:be:a0:df:69,00:1a:be:a0:de:56,00:1a:be:a0:de:59,00:1a:be:a0:de:84,00:1a:be:a0:df:34,00:1a:be:a0:df:40,00:1a:be:a0:de:78,00:1a:be:a0:de:65,00:1a:be:a0:df:21,00:1a:be:a0:de:82,00:1a:be:a0:df:38,00:1a:be:a0:de:81,00:1a:be:a0:df:14,00:1a:be:a0:df:37,00:1a:be:a0:df:70,00:1a:be:a0:de:44,00:1a:be:a0:de:57,00:1a:be:a0:de:67,00:1a:be:a0:df:23,00:1a:be:a0:df:06,00:1a:be:a0:de:79,00:1a:be:a0:df:35,00:1a:be:a0:de:83,00:1a:be:a0:df:15,00:1a:be:a0:df:39,00:1a:be:a0:df:71,00:1a:be:a0:de:38,00:1a:be:a0:de:51,00:1a:be:a0:de:68,00:1a:be:a0:df:24,00:1a:be:a0:de:60,00:1a:be:a0:de:05,00:1a:be:a0:df:09,00:1a:be:a0:df:65,00:1a:be:a0:de:33,00:1a:be:a0:de:32,00:1a:be:a0:de:97,00:1a:be:a0:df:53,00:1a:be:a0:de:86,00:1a:be:a0:df:44,00:1a:be:a0:df:62,00:1a:be:a0:de:55,00:1a:be:a0:de:88,00:1a:be:a0:de:41,00:1a:be:a0:de:49,00:1a:be:a0:de:54,00:1a:be:a0:df:10,00:1a:be:a0:df:66,00:1a:be:a0:df:42,00:1a:be:a0:de:70,00:1a:be:a0:de:08,00:1a:be:a0:de:12,00:1a:be:a0:de:69,00:1a:be:a0:df:25,00:1a:be:a0:de:74,00:1a:be:a0:df:26,00:1a:be:a0:de:85,00:1a:be:a0:de:62,00:1a:be:a0:df:30,00:1a:be:a0:df:41,00:1a:be:a0:df:18,00:1a:be:a0:de:76,00:1a:be:a0:df:32,00:1a:be:a0:de:98,00:1a:be:a0:de:87,00:1a:be:a0:df:43,00:1a:be:a0:df:54,00:1a:be:a0:de:71,00:1a:be:a0:de:75,00:1a:be:a0:df:27,00:1a:be:a0:df:31,00:1a:be:a0:de:17,00:1a:be:a0:df:04,00:1a:be:a0:df:59,00:1a:be:a0:de:15,00:1a:be:a0:df:05,00:1a:be:a0:df:60,00:1a:be:a0:de:63,00:1a:be:a0:df:19,00:1a:be:a0:de:02,00:1a:be:a0:de:99,00:1a:be:a0:df:55,00:1a:be:a0:de:16,00:1a:be:a0:de:77,00:1a:be:a0:de:27,00:1a:be:a0:de:30,00:1a:be:a0:df:33,00:1a:be:a0:de:26,00:1a:be:a0:de:61,00:1a:be:a0:df:61,00:1a:be:a0:de:01,00:1a:be:a0:de:03,00:1a:be:a0:de:04,00:1a:be:a0:de:24
2021.05.19 171520,124.0,47.0,32.0431339402985,-15.961343000000003,-30.742387649253732,-0.352405091,1.117500966492537,9.897038652985072,0.005876213738432836,-0.0008880976923880597,0.0008729631221940302,-0.11237521636397085,0.035569117578274675,-1.9488633088211516,1003.1173935074628,-81.0,-80.0,-85.0,-76.0,-76.0,-50.0,-55.0,-63.0,-68.0,-71.0,-86.0,-80.0,-80.0,-70.0,-86.0,-83.0,-90.0,-75.0,-85.0,-88.0,-75.0,-76.0,-86.0,-51.0,-55.0,-64.0,-68.0,-71.0,-87.0,-79.0,-80.0,-71.0,-86.0,-83.0,-88.0,-74.0,-85.0,-85.0,-100.0,-100.0,-100.0,-100.0,-100.0,-100.0,-100.0,-100.0,-100.0,-100.0,-100.0,-100.0,-100.0,-100.0,-100.0,-100.0,-100.0,-100.0,-100.0,-100.0,-100.0,-100.0,-100.0,-100.0,-100.0,-100.0,-100.0,-100.0,-100.0,-100.0,-100.0,-100.0,-100.0,-100.0,-100.0,-100.0,-100.0,-100.0,-100.0,-100.0,-100.0,-100.0,-100.0,-100.0,-100.0,-100.0,-100.0,-100.0,-100.0,-100.0,-100.0,-100.0,-100.0,-100.0,-100.0,-100.0,-100.0,-100.0,-100.0,-100.0,-100.0,-100.0,-100.0,-100.0,-100.0,-100.0,-100.0,-100.0,-100.0,-100.0,-100.0,-100.0,-100.0,-100.0,-100.0,-100.0,-100.0,-100.0,-100.0,-100.0,-100.0,-100.0,-100.0,-100.0,-100.0,-100.0,-100.0,-100.0,-100.0,-100.0,-100.0,-100.0,-100.0,-100.0,-100.0,-100.0,-100.0,-100.0,-100.0,-100.0,-100.0,-100.0,-100.0,-100.0,-100.0
2021.05.19 171533,123.0,48.0,31.198749513888895,-14.7766664375,-29.161249611111106,-0.30071426483333336,0.8752570877777779,9.919962618055555,0.003958712145486112,-0.0023544782049305553,0.0008352903426250002,-0.08797008937431701,0.03030428511232857,-1.95051209628582,1003.120514861111,-65.0,-63.0,-89.0,-82.0,-78.0,-44.0,-48.0,-59.0,-75.0,-71.0,-82.0,-79.0,-86.0,-76.0,-100.0,-100.0,-100.0,-75.0,-91.0,-89.0,-81.0,-78.0,-100.0,-44.0,-48.0,-59.0,-74.0,-71.0,-82.0,-80.0,-84.0,-76.0,-100.0,-100.0,-100.0,-75.0,-84.0,-82.0,-76.0,-89.0,-76.0,-88.0,-89.0,-89.0,-87.0,-100.0,-100.0,-100.0,-100.0,-100.0,-100.0,-100.0,-100.0,-100.0,-100.0,-100.0,-100.0,-100.0,-100.0,-100.0,-100.0,-100.0,-100.0,-100.0,-100.0,-100.0,-100.0,-100.0,-100.0,-100.0,-100.0,-100.0,-100.0,-100.0,-100.0,-100.0,-100.0,-100.0,-100.0,-100.0,-100.0,-100.0,-100.0,-100.0,-100.0,-100.0,-100.0,-100.0,-100.0,-100.0,-100.0,-100.0,-100.0,-100.0,-100.0,-100.0,-100.0,-100.0,-100.0,-100.0,-100.0,-100.0,-100.0,-100.0,-100.0,-100.0,-100.0,-100.0,-100.0,-100.0,-100.0,-100.0,-100.0,-100.0,-100.0,-100.0,-100.0,-100.0,-100.0,-100.0,-100.0,-100.0,-100.0,-100.0,-100.0,-100.0,-100.0,-100.0,-100.0,-100.0,-100.0,-100.0,-100.0,-100.0,-100.0,-100.0,-100.0,-100.0,-100.0,-100.0,-100.0,-100.0,-100.0
2021.05.19 171547,122.0,49.0,31.362236342105263,-14.385789174342108,-28.72697339473684,-0.40794032348684206,0.83793317625,9.918740204605262,0.006713634126644736,-0.004887693485197369,-0.0021451336749473684,-0.08429864874893893,0.04095264451921374,-1.9441576733400947,1003.1201229605263,-65.0,-65.0,-90.0,-78.0,-76.0,-41.0,-46.0,-61.0,-76.0,-69.0,-81.0,-84.0,-89.0,-79.0,-100.0,-100.0,-100.0,-77.0,-90.0,-90.0,-76.0,-77.0,-84.0,-42.0,-46.0,-61.0,-76.0,-69.0,-81.0,-82.0,-87.0,-80.0,-100.0,-100.0,-100.0,-76.0,-81.0,-80.0,-78.0,-100.0,-78.0,-91.0,-100.0,-100.0,-100.0,-85.0,-100.0,-100.0,-100.0,-100.0,-100.0,-100.0,-100.0,-100.0,-100.0,-100.0,-100.0,-100.0,-100.0,-100.0,-100.0,-100.0,-100.0,-100.0,-100.0,-100.0,-100.0,-100.0,-100.0,-100.0,-100.0,-100.0,-100.0,-100.0,-100.0,-100.0,-100.0,-100.0,-100.0,-100.0,-100.0,-100.0,-100.0,-100.0,-100.0,-100.0,-100.0,-100.0,-100.0,-100.0,-100.0,-100.0,-100.0,-100.0,-100.0,-100.0,-100.0,-100.0,-100.0,-100.0,-100.0,-100.0,-100.0,-100.0,-100.0,-100.0,-100.0,-100.0,-100.0,-100.0,-100.0,-100.0,-100.0,-100.0,-100.0,-100.0,-100.0,-100.0,-100.0,-100.0,-100.0,-100.0,-100.0,-100.0,-100.0,-100.0,-100.0,-100.0,-100.0,-100.0,-100.0,-100.0,-100.0,-100.0,-100.0,-100.0,-100.0,-100.0,-100.0,-100.0,-100.0,-100.0,-100.0
2021.05.19 171601,121.0,50.0,33.21829741843972,-15.674467865248227,-29.91616980851063,-0.3741011943971631,0.9403217117730495,9.903229992907802,0.005452028616312056,0.0021620254760992916,4.670716617021278e-05,-0.09460794421058172,0.03771174843142346,-1.9468490333421855,1003.1240295035464,-62.0,-63.0,-86.0,-76.0,-76.0,-45.0,-51.0,-56.0,-70.0,-68.0,-83.0,-80.0,-100.0,-100.0,-100.0,-100.0,-100.0,-76.0,-88.0,-100.0,-79.0,-75.0,-100.0,-46.0,-51.0,-54.0,-69.0,-68.0,-83.0,-81.0,-88.0,-76.0,-100.0,-100.0,-100.0,-77.0,-83.0,-85.0,-80.0,-100.0,-80.0,-100.0,-87.0,-88.0,-100.0,-100.0,-91.0,-100.0,-100.0,-100.0,-100.0,-100.0,-100.0,-100.0,-100.0,-100.0,-100.0,-100.0,-100.0,-100.0,-100.0,-100.0,-100.0,-100.0,-100.0,-100.0,-100.0,-100.0,-100.0,-100.0,-100.0,-100.0,-100.0,-100.0,-100.0,-100.0,-100.0,-100.0,-100.0,-100.0,-100.0,-100.0,-100.0,-100.0,-100.0,-100.0,-100.0,-100.0,-100.0,-100.0,-100.0,-100.0,-100.0,-100.0,-100.0,-100.0,-100.0,-100.0,-100.0,-100.0,-100.0,-100.0,-100.0,-100.0,-100.0,-100.0,-100.0,-100.0,-100.0,-100.0,-100.0,-100.0,-100.0,-100.0,-100.0,-100.0,-100.0,-100.0,-100.0,-100.0,-100.0,-100.0,-100.0,-100.0,-100.0,-100.0,-100.0,-100.0,-100.0,-100.0,-100.0,-100.0,-100.0,-100.0,-100.0,-100.0,-100.0,-100.0,-100.0,-100.0,-100.0,-100.0,-100.0
2021.05.19 171613,120.0,51.0,32.256922720279725,-15.751468206293705,-30.493845713286717,-0.3588900742097902,0.9307701468531469,9.92130553146853,0.004738579817482519,1.2802487832168392e-05,-0.0018844423482797202,-0.09350770770513506,0.03614972793445039,-1.958919380928253,1003.1267583916083,-74.0,-75.0,-100.0,-76.0,-72.0,-50.0,-49.0,-66.0,-70.0,-66.0,-85.0,-100.0,-85.0,-74.0,-100.0,-86.0,-100.0,-77.0,-89.0,-90.0,-76.0,-72.0,-89.0,-50.0,-49.0,-66.0,-70.0,-65.0,-84.0,-100.0,-86.0,-74.0,-100.0,-100.0,-100.0,-77.0,-83.0,-82.0,-83.0,-91.0,-82.0,-90.0,-87.0,-88.0,-100.0,-88.0,-100.0,-91.0,-90.0,-83.0,-100.0,-100.0,-100.0,-100.0,-100.0,-100.0,-100.0,-100.0,-100.0,-100.0,-100.0,-100.0,-100.0,-100.0,-100.0,-100.0,-100.0,-100.0,-100.0,-100.0,-100.0,-100.0,-100.0,-100.0,-100.0,-100.0,-100.0,-100.0,-100.0,-100.0,-100.0,-100.0,-100.0,-100.0,-100.0,-100.0,-100.0,-100.0,-100.0,-100.0,-100.0,-100.0,-100.0,-100.0,-100.0,-100.0,-100.0,-100.0,-100.0,-100.0,-100.0,-100.0,-100.0,-100.0,-100.0,-100.0,-100.0,-100.0,-100.0,-100.0,-100.0,-100.0,-100.0,-100.0,-100.0,-100.0,-100.0,-100.0,-100.0,-100.0,-100.0,-100.0,-100.0,-100.0,-100.0,-100.0,-100.0,-100.0,-100.0,-100.0,-100.0,-100.0,-100.0,-100.0,-100.0,-100.0,-100.0,-100.0,-100.0,-100.0,-100.0,-100.0,-100.0
2021.05.19 171628,119.0,52.0,32.266573090909084,-12.89706261888112,-30.465314356643354,-0.4334642008391609,0.8502856740559441,9.912833447552448,0.006276422578671327,-0.0029090985431468536,-0.0048447892789650355,-0.08562727423606215,0.04356728929218708,-1.8872684665493198,1003.1311046153845,-75.0,-75.0,-89.0,-76.0,-78.0,-49.0,-53.0,-62.0,-69.0,-72.0,-86.0,-81.0,-83.0,-73.0,-85.0,-90.0,-100.0,-84.0,-89.0,-90.0,-74.0,-78.0,-88.0,-50.0,-53.0,-63.0,-69.0,-71.0,-86.0,-81.0,-83.0,-73.0,-85.0,-100.0,-100.0,-84.0,-100.0,-100.0,-83.0,-100.0,-83.0,-90.0,-100.0,-100.0,-100.0,-100.0,-100.0,-100.0,-90.0,-100.0,-100.0,-100.0,-100.0,-100.0,-100.0,-100.0,-100.0,-100.0,-100.0,-100.0,-100.0,-100.0,-100.0,-100.0,-100.0,-100.0,-100.0,-100.0,-100.0,-100.0,-100.0,-100.0,-100.0,-100.0,-100.0,-100.0,-100.0,-100.0,-100.0,-100.0,-100.0,-100.0,-100.0,-100.0,-100.0,-100.0,-100.0,-100.0,-100.0,-100.0,-100.0,-100.0,-100.0,-100.0,-100.0,-100.0,-100.0,-100.0,-100.0,-100.0,-100.0,-100.0,-100.0,-100.0,-100.0,-100.0,-100.0,-100.0,-100.0,-100.0,-100.0,-100.0,-100.0,-100.0,-100.0,-100.0,-100.0,-100.0,-100.0,-100.0,-100.0,-100.0,-100.0,-100.0,-100.0,-100.0,-100.0,-100.0,-100.0,-100.0,-100.0,-100.0,-100.0,-100.0,-100.0,-100.0,-100.0,-100.0,-100.0,-100.0,-100.0,-100.0,-100.0
2021.05.19 171642,118.0,53.0,34.27757095,-11.814428382142857,-27.898285285714284,-0.4643011943714286,0.8232200885,9.91968574642857,0.0034143883860714296,-0.002172673013642858,0.0018183713036000002,-0.08275812522375153,0.04684050557885447,-1.8466919916016715,1003.1297105000001,-75.0,-73.0,-88.0,-75.0,-77.0,-49.0,-60.0,-61.0,-73.0,-71.0,-86.0,-80.0,-87.0,-72.0,-86.0,-100.0,-91.0,-81.0,-87.0,-100.0,-75.0,-77.0,-87.0,-49.0,-60.0,-61.0,-73.0,-71.0,-87.0,-80.0,-86.0,-71.0,-85.0,-100.0,-88.0,-79.0,-85.0,-84.0,-87.0,-100.0,-86.0,-100.0,-100.0,-100.0,-100.0,-100.0,-100.0,-100.0,-100.0,-100.0,-88.0,-100.0,-100.0,-100.0,-100.0,-100.0,-100.0,-100.0,-100.0,-100.0,-100.0,-100.0,-100.0,-100.0,-100.0,-100.0,-100.0,-100.0,-100.0,-100.0,-100.0,-100.0,-100.0,-100.0,-100.0,-100.0,-100.0,-100.0,-100.0,-100.0,-100.0,-100.0,-100.0,-100.0,-100.0,-100.0,-100.0,-100.0,-100.0,-100.0,-100.0,-100.0,-100.0,-100.0,-100.0,-100.0,-100.0,-100.0,-100.0,-100.0,-100.0,-100.0,-100.0,-100.0,-100.0,-100.0,-100.0,-100.0,-100.0,-100.0,-100.0,-100.0,-100.0,-100.0,-100.0,-100.0,-100.0,-100.0,-100.0,-100.0,-100.0,-100.0,-100.0,-100.0,-100.0,-100.0,-100.0,-100.0,-100.0,-100.0,-100.0,-100.0,-100.0,-100.0,-100.0,-100.0,-100.0,-100.0,-100.0,-100.0,-100.0,-100.0,-100.0
2021.05.19 171654,117.0,54.0,35.60676210791367,-13.461150776978418,-31.39942403597122,-0.35867614744604315,0.6636964230935252,9.928713151079137,0.008774494597841727,0.0006156159902877697,-0.0029369915501151083,-0.0667254607052468,0.03602365685774263,-1.8863482715414583,1003.1315379856117,-75.0,-75.0,-84.0,-77.0,-74.0,-54.0,-60.0,-68.0,-72.0,-68.0,-86.0,-84.0,-86.0,-73.0,-87.0,-89.0,-100.0,-79.0,-84.0,-86.0,-77.0,-74.0,-100.0,-56.0,-60.0,-69.0,-72.0,-68.0,-85.0,-84.0,-87.0,-73.0,-87.0,-89.0,-89.0,-100.0,-89.0,-87.0,-100.0,-91.0,-100.0,-85.0,-100.0,-100.0,-100.0,-89.0,-100.0,-100.0,-100.0,-92.0,-100.0,-100.0,-100.0,-100.0,-100.0,-100.0,-100.0,-100.0,-100.0,-100.0,-100.0,-100.0,-100.0,-100.0,-100.0,-100.0,-100.0,-100.0,-100.0,-100.0,-100.0,-100.0,-100.0,-100.0,-100.0,-100.0,-100.0,-100.0,-100.0,-100.0,-100.0,-100.0,-100.0,-100.0,-100.0,-100.0,-100.0,-100.0,-100.0,-100.0,-100.0,-100.0,-100.0,-100.0,-100.0,-100.0,-100.0,-100.0,-100.0,-100.0,-100.0,-100.0,-100.0,-100.0,-100.0,-100.0,-100.0,-100.0,-100.0,-100.0,-100.0,-100.0,-100.0,-100.0,-100.0,-100.0,-100.0,-100.0,-100.0,-100.0,-100.0,-100.0,-100.0,-100.0,-100.0,-100.0,-100.0,-100.0,-100.0,-100.0,-100.0,-100.0,-100.0,-100.0,-100.0,-100.0,-100.0,-100.0,-100.0,-100.0,-100.0,-100.0,-100.0
2021.05.19 171707,116.0,55.0,34.163649145985396,-15.648612934306572,-33.896058116788325,-0.4582152640875912,0.8900585515328466,9.91827463868613,0.008007087888321168,-0.0008510955640145978,-0.0019814460446277377,-0.08943753961446506,0.04614243084007367,-1.9357603449020944,1003.1372752554743,-82.0,-82.0,-83.0,-77.0,-80.0,-54.0,-61.0,-67.0,-69.0,-70.0,-84.0,-84.0,-87.0,-69.0,-86.0,-100.0,-89.0,-75.0,-84.0,-100.0,-72.0,-79.0,-88.0,-53.0,-61.0,-66.0,-69.0,-71.0,-86.0,-100.0,-87.0,-73.0,-88.0,-82.0,-100.0,-75.0,-86.0,-85.0,-100.0,-100.0,-100.0,-87.0,-100.0,-100.0,-100.0,-87.0,-100.0,-100.0,-100.0,-91.0,-100.0,-89.0,-100.0,-100.0,-100.0,-100.0,-100.0,-100.0,-100.0,-100.0,-100.0,-100.0,-100.0,-100.0,-100.0,-100.0,-100.0,-100.0,-100.0,-100.0,-100.0,-100.0,-100.0,-100.0,-100.0,-100.0,-100.0,-100.0,-100.0,-100.0,-100.0,-100.0,-100.0,-100.0,-100.0,-100.0,-100.0,-100.0,-100.0,-100.0,-100.0,-100.0,-100.0,-100.0,-100.0,-100.0,-100.0,-100.0,-100.0,-100.0,-100.0,-100.0,-100.0,-100.0,-100.0,-100.0,-100.0,-100.0,-100.0,-100.0,-100.0,-100.0,-100.0,-100.0,-100.0,-100.0,-100.0,-100.0,-100.0,-100.0,-100.0,-100.0,-100.0,-100.0,-100.0,-100.0,-100.0,-100.0,-100.0,-100.0,-100.0,-100.0,-100.0,-100.0,-100.0,-100.0,-100.0,-100.0,-100.0,-100.0,-100.0,-100.0,-100.0
2021.05.19 171719,115.0,56.0,32.87399953571429,-15.374571196428567,-34.13657104285714,-0.4200584125285714,0.7102103142857142,9.92939967142857,0.008392939381785713,0.0023695460645000005,-0.0024576853398571435,-0.07136963096979468,0.042302990917648546,-1.957944587298802,1003.1394951428572,-80.0,-79.0,-83.0,-74.0,-82.0,-58.0,-61.0,-63.0,-74.0,-78.0,-85.0,-86.0,-87.0,-71.0,-85.0,-82.0,-88.0,-72.0,-83.0,-82.0,-74.0,-81.0,-84.0,-58.0,-61.0,-63.0,-74.0,-79.0,-84.0,-86.0,-87.0,-72.0,-86.0,-83.0,-100.0,-72.0,-100.0,-100.0,-89.0,-100.0,-100.0,-83.0,-100.0,-100.0,-100.0,-86.0,-100.0,-100.0,-90.0,-90.0,-100.0,-100.0,-100.0,-100.0,-100.0,-100.0,-100.0,-100.0,-100.0,-100.0,-100.0,-100.0,-100.0,-100.0,-100.0,-100.0,-100.0,-100.0,-100.0,-100.0,-100.0,-100.0,-100.0,-100.0,-100.0,-100.0,-100.0,-100.0,-100.0,-100.0,-100.0,-100.0,-100.0,-100.0,-100.0,-100.0,-100.0,-100.0,-100.0,-100.0,-100.0,-100.0,-100.0,-100.0,-100.0,-100.0,-100.0,-100.0,-100.0,-100.0,-100.0,-100.0,-100.0,-100.0,-100.0,-100.0,-100.0,-100.0,-100.0,-100.0,-100.0,-100.0,-100.0,-100.0,-100.0,-100.0,-100.0,-100.0,-100.0,-100.0,-100.0,-100.0,-100.0,-100.0,-100.0,-100.0,-100.0,-100.0,-100.0,-100.0,-100.0,-100.0,-100.0,-100.0,-100.0,-100.0,-100.0,-100.0,-100.0,-100.0,-100.0,-100.0,-100.0
2021.05.19 171731,114.0,57.0,32.953333,-14.543110792592595,-34.27644396296296,-0.5401129255185185,0.7138131318518518,9.935442355555555,0.0058051655918518515,0.004095806294296297,0.003210594864829629,-0.07163948208369586,0.05433523122359201,-1.9374961844197025,1003.1388451851852,-100.0,-81.0,-87.0,-69.0,-70.0,-58.0,-64.0,-71.0,-76.0,-72.0,-82.0,-81.0,-86.0,-69.0,-81.0,-93.0,-100.0,-66.0,-87.0,-85.0,-69.0,-70.0,-78.0,-57.0,-64.0,-70.0,-76.0,-72.0,-82.0,-81.0,-86.0,-68.0,-81.0,-90.0,-100.0,-65.0,-89.0,-87.0,-100.0,-85.0,-100.0,-86.0,-88.0,-87.0,-100.0,-78.0,-100.0,-100.0,-100.0,-100.0,-88.0,-100.0,-94.0,-89.0,-94.0,-100.0,-100.0,-100.0,-100.0,-100.0,-100.0,-100.0,-100.0,-100.0,-100.0,-100.0,-100.0,-100.0,-100.0,-100.0,-100.0,-100.0,-100.0,-100.0,-100.0,-100.0,-100.0,-100.0,-100.0,-100.0,-100.0,-100.0,-100.0,-100.0,-100.0,-100.0,-100.0,-100.0,-100.0,-100.0,-100.0,-100.0,-100.0,-100.0,-100.0,-100.0,-100.0,-100.0,-100.0,-100.0,-100.0,-100.0,-100.0,-100.0,-100.0,-100.0,-100.0,-100.0,-100.0,-100.0,-100.0,-100.0,-100.0,-100.0,-100.0,-100.0,-100.0,-100.0,-100.0,-100.0,-100.0,-100.0,-100.0,-100.0,-100.0,-100.0,-100.0,-100.0,-100.0,-100.0,-100.0,-100.0,-100.0,-100.0,-100.0,-100.0,-100.0,-100.0,-100.0,-100.0,-100.0,-100.0,-100.0
2021.05.19 171743,113.0,58.0,32.7078255,-14.477391010869566,-35.34130379710145,-0.3528432375652174,0.669008961231884,9.951369471014493,0.007439648045289854,0.0037364681260144937,6.48845495797106e-05,-0.06714348971465786,0.035499098909802795,-1.9353855105413906,1003.1420536231882,-80.0,-82.0,-73.0,-70.0,-74.0,-60.0,-67.0,-62.0,-76.0,-74.0,-86.0,-84.0,-84.0,-64.0,-77.0,-100.0,-100.0,-76.0,-86.0,-81.0,-70.0,-74.0,-77.0,-60.0,-67.0,-62.0,-75.0,-74.0,-87.0,-83.0,-83.0,-64.0,-77.0,-100.0,-100.0,-76.0,-100.0,-92.0,-100.0,-82.0,-100.0,-82.0,-100.0,-100.0,-100.0,-75.0,-100.0,-100.0,-100.0,-100.0,-71.0,-100.0,-91.0,-82.0,-91.0,-81.0,-100.0,-100.0,-100.0,-100.0,-100.0,-100.0,-100.0,-100.0,-100.0,-100.0,-100.0,-100.0,-100.0,-100.0,-100.0,-100.0,-100.0,-100.0,-100.0,-100.0,-100.0,-100.0,-100.0,-100.0,-100.0,-100.0,-100.0,-100.0,-100.0,-100.0,-100.0,-100.0,-100.0,-100.0,-100.0,-100.0,-100.0,-100.0,-100.0,-100.0,-100.0,-100.0,-100.0,-100.0,-100.0,-100.0,-100.0,-100.0,-100.0,-100.0,-100.0,-100.0,-100.0,-100.0,-100.0,-100.0,-100.0,-100.0,-100.0,-100.0,-100.0,-100.0,-100.0,-100.0,-100.0,-100.0,-100.0,-100.0,-100.0,-100.0,-100.0,-100.0,-100.0,-100.0,-100.0,-100.0,-100.0,-100.0,-100.0,-100.0,-100.0,-100.0,-100.0,-100.0,-100.0,-100.0,-100.0
2021.05.19 171757,112.0,59.0,33.136888496296294,-14.043110766666667,-34.780443955555555,-0.3223580662814815,0.7955199734814815,9.924003044444444,0.0071626437785185185,0.002987199009111112,-0.00010165250377777775,-0.07998750402971547,0.032502026176425,-1.9057978550593058,1003.1379829629628,-80.0,-81.0,-85.0,-76.0,-73.0,-63.0,-68.0,-70.0,-83.0,-74.0,-83.0,-82.0,-89.0,-59.0,-80.0,-85.0,-88.0,-79.0,-86.0,-85.0,-76.0,-73.0,-100.0,-63.0,-68.0,-70.0,-83.0,-74.0,-84.0,-82.0,-87.0,-59.0,-79.0,-86.0,-100.0,-79.0,-90.0,-90.0,-100.0,-100.0,-100.0,-84.0,-100.0,-100.0,-100.0,-100.0,-100.0,-100.0,-100.0,-100.0,-100.0,-100.0,-100.0,-91.0,-100.0,-89.0,-89.0,-100.0,-100.0,-100.0,-100.0,-100.0,-100.0,-100.0,-100.0,-100.0,-100.0,-100.0,-100.0,-100.0,-100.0,-100.0,-100.0,-100.0,-100.0,-100.0,-100.0,-100.0,-100.0,-100.0,-100.0,-100.0,-100.0,-100.0,-100.0,-100.0,-100.0,-100.0,-100.0,-100.0,-100.0,-100.0,-100.0,-100.0,-100.0,-100.0,-100.0,-100.0,-100.0,-100.0,-100.0,-100.0,-100.0,-100.0,-100.0,-100.0,-100.0,-100.0,-100.0,-100.0,-100.0,-100.0,-100.0,-100.0,-100.0,-100.0,-100.0,-100.0,-100.0,-100.0,-100.0,-100.0,-100.0,-100.0,-100.0,-100.0,-100.0,-100.0,-100.0,-100.0,-100.0,-100.0,-100.0,-100.0,-100.0,-100.0,-100.0,-100.0,-100.0,-100.0,-100.0,-100.0,-100.0
2021.05.19 171809,111.0,60.0,33.76183049295775,-14.767182785211267,-32.781548697183105,-0.6139460176056339,0.7829953091549295,9.947587982394367,0.0015588074989436624,-0.0006925233595070435,-0.001764531512647887,-0.07839952283342115,0.0616987325434743,-1.9326854129912148,1003.1448861971833,-80.0,-81.0,-84.0,-74.0,-73.0,-59.0,-66.0,-68.0,-83.0,-76.0,-84.0,-80.0,-100.0,-58.0,-74.0,-100.0,-100.0,-82.0,-83.0,-80.0,-74.0,-73.0,-73.0,-59.0,-66.0,-66.0,-83.0,-76.0,-84.0,-100.0,-100.0,-59.0,-74.0,-100.0,-100.0,-81.0,-100.0,-100.0,-100.0,-100.0,-100.0,-80.0,-100.0,-100.0,-100.0,-82.0,-100.0,-100.0,-100.0,-100.0,-100.0,-100.0,-100.0,-100.0,-100.0,-100.0,-88.0,-88.0,-100.0,-100.0,-100.0,-100.0,-100.0,-100.0,-100.0,-100.0,-100.0,-100.0,-100.0,-100.0,-100.0,-100.0,-100.0,-100.0,-100.0,-100.0,-100.0,-100.0,-100.0,-100.0,-100.0,-100.0,-100.0,-100.0,-100.0,-100.0,-100.0,-100.0,-100.0,-100.0,-100.0,-100.0,-100.0,-100.0,-100.0,-100.0,-100.0,-100.0,-100.0,-100.0,-100.0,-100.0,-100.0,-100.0,-100.0,-100.0,-100.0,-100.0,-100.0,-100.0,-100.0,-100.0,-100.0,-100.0,-100.0,-100.0,-100.0,-100.0,-100.0,-100.0,-100.0,-100.0,-100.0,-100.0,-100.0,-100.0,-100.0,-100.0,-100.0,-100.0,-100.0,-100.0,-100.0,-100.0,-100.0,-100.0,-100.0,-100.0,-100.0,-100.0,-100.0,-100.0,-100.0
2021.05.19 171821,110.0,61.0,33.27416008029198,-16.78773700729927,-29.94437916058394,-0.7084082456934306,0.8540046172262774,9.919410598540145,-0.0009953715686131382,0.0008834047989781027,-0.0034573322935328474,-0.08566714235900957,0.07122047374663992,-1.9934014255983117,1003.1759748175183,-82.0,-83.0,-81.0,-75.0,-76.0,-62.0,-73.0,-75.0,-84.0,-75.0,-82.0,-100.0,-100.0,-62.0,-70.0,-90.0,-100.0,-86.0,-100.0,-100.0,-74.0,-77.0,-100.0,-62.0,-73.0,-75.0,-84.0,-75.0,-81.0,-83.0,-100.0,-62.0,-70.0,-100.0,-100.0,-87.0,-91.0,-100.0,-100.0,-84.0,-100.0,-100.0,-100.0,-100.0,-100.0,-100.0,-100.0,-100.0,-89.0,-87.0,-85.0,-100.0,-100.0,-85.0,-100.0,-85.0,-100.0,-100.0,-100.0,-100.0,-100.0,-100.0,-100.0,-100.0,-100.0,-100.0,-100.0,-100.0,-100.0,-100.0,-100.0,-100.0,-100.0,-100.0,-100.0,-100.0,-100.0,-100.0,-100.0,-100.0,-100.0,-100.0,-100.0,-100.0,-100.0,-100.0,-100.0,-100.0,-100.0,-100.0,-100.0,-100.0,-100.0,-100.0,-100.0,-100.0,-100.0,-100.0,-100.0,-100.0,-100.0,-100.0,-100.0,-100.0,-100.0,-100.0,-100.0,-100.0,-100.0,-100.0,-100.0,-100.0,-100.0,-100.0,-100.0,-100.0,-100.0,-100.0,-100.0,-100.0,-100.0,-100.0,-100.0,-100.0,-100.0,-100.0,-100.0,-100.0,-100.0,-100.0,-100.0,-100.0,-100.0,-100.0,-100.0,-100.0,-100.0,-100.0,-100.0,-100.0,-100.0,-100.0,-100.0
2021.05.19 171835,109.0,62.0,32.191555118518515,-16.71866642962963,-28.627555059259254,-0.44604453074074085,0.8725269498518518,9.935140829629631,0.003406953584074074,0.0012134273500000001,-0.0018075501364592595,-0.08753967696317916,0.04488862103058228,-1.9975075553964685,1003.2169931851853,-81.0,-80.0,-83.0,-75.0,-75.0,-61.0,-72.0,-80.0,-85.0,-72.0,-86.0,-86.0,-100.0,-50.0,-70.0,-100.0,-89.0,-87.0,-84.0,-81.0,-75.0,-75.0,-81.0,-61.0,-71.0,-79.0,-86.0,-72.0,-86.0,-85.0,-100.0,-50.0,-70.0,-100.0,-89.0,-87.0,-93.0,-100.0,-100.0,-85.0,-100.0,-80.0,-100.0,-100.0,-100.0,-79.0,-100.0,-100.0,-100.0,-100.0,-85.0,-100.0,-100.0,-85.0,-100.0,-84.0,-100.0,-100.0,-100.0,-100.0,-100.0,-100.0,-100.0,-100.0,-100.0,-100.0,-100.0,-100.0,-100.0,-100.0,-100.0,-100.0,-100.0,-100.0,-100.0,-100.0,-100.0,-100.0,-100.0,-100.0,-100.0,-100.0,-100.0,-100.0,-100.0,-100.0,-100.0,-100.0,-100.0,-100.0,-100.0,-100.0,-100.0,-100.0,-100.0,-100.0,-100.0,-100.0,-100.0,-100.0,-100.0,-100.0,-100.0,-100.0,-100.0,-100.0,-100.0,-100.0,-100.0,-100.0,-100.0,-100.0,-100.0,-100.0,-100.0,-100.0,-100.0,-100.0,-100.0,-100.0,-100.0,-100.0,-100.0,-100.0,-100.0,-100.0,-100.0,-100.0,-100.0,-100.0,-100.0,-100.0,-100.0,-100.0,-100.0,-100.0,-100.0,-100.0,-100.0,-100.0,-100.0,-100.0,-100.0
2021.05.19 171848,108.0,63.0,33.24771375714286,-14.990571125000002,-28.925571014285712,-0.5223452545214287,1.0146765610000001,9.884182077142857,0.003959803035714286,0.0019419404792857143,-0.000249843828457143,-0.10232214842523842,0.05270339596151769,-1.927047269684928,1003.2654967142857,-100.0,-100.0,-73.0,-73.0,-67.0,-65.0,-72.0,-77.0,-90.0,-72.0,-82.0,-86.0,-100.0,-60.0,-69.0,-88.0,-86.0,-80.0,-84.0,-84.0,-73.0,-67.0,-100.0,-65.0,-72.0,-77.0,-88.0,-72.0,-82.0,-87.0,-100.0,-60.0,-69.0,-100.0,-86.0,-81.0,-100.0,-100.0,-100.0,-80.0,-100.0,-82.0,-100.0,-100.0,-100.0,-100.0,-100.0,-100.0,-100.0,-100.0,-80.0,-100.0,-100.0,-84.0,-100.0,-85.0,-100.0,-89.0,-100.0,-100.0,-100.0,-100.0,-100.0,-100.0,-100.0,-100.0,-100.0,-100.0,-100.0,-100.0,-100.0,-100.0,-100.0,-100.0,-100.0,-100.0,-100.0,-100.0,-100.0,-100.0,-100.0,-100.0,-100.0,-100.0,-100.0,-100.0,-100.0,-100.0,-100.0,-100.0,-100.0,-100.0,-100.0,-100.0,-100.0,-100.0,-100.0,-100.0,-100.0,-100.0,-100.0,-100.0,-100.0,-100.0,-100.0,-100.0,-100.0,-100.0,-100.0,-100.0,-100.0,-100.0,-100.0,-100.0,-100.0,-100.0,-100.0,-100.0,-100.0,-100.0,-100.0,-100.0,-100.0,-100.0,-100.0,-100.0,-100.0,-100.0,-100.0,-100.0,-100.0,-100.0,-100.0,-100.0,-100.0,-100.0,-100.0,-100.0,-100.0,-100.0,-100.0,-100.0,-100.0
2021.05.19 171900,107.0,64.0,33.8896870390625,-14.2514059140625,-30.8910934140625,-0.523242572578125,0.96910143421875,9.893723386718749,0.0089840332203125,4.921295726562471e-05,-0.0011155544629062489,-0.09765453913132657,0.05268064617121122,-1.9003126062452793,1003.26588625,-86.0,-87.0,-100.0,-68.0,-72.0,-62.0,-70.0,-77.0,-89.0,-77.0,-81.0,-80.0,-100.0,-56.0,-67.0,-100.0,-89.0,-86.0,-100.0,-79.0,-67.0,-71.0,-79.0,-62.0,-70.0,-76.0,-100.0,-77.0,-82.0,-80.0,-100.0,-56.0,-67.0,-100.0,-88.0,-87.0,-100.0,-100.0,-100.0,-75.0,-100.0,-79.0,-100.0,-100.0,-100.0,-79.0,-100.0,-100.0,-88.0,-79.0,-77.0,-100.0,-100.0,-87.0,-100.0,-88.0,-100.0,-100.0,-100.0,-100.0,-100.0,-100.0,-100.0,-100.0,-100.0,-100.0,-100.0,-100.0,-100.0,-100.0,-100.0,-100.0,-100.0,-100.0,-100.0,-100.0,-100.0,-100.0,-100.0,-100.0,-100.0,-100.0,-100.0,-100.0,-100.0,-100.0,-100.0,-100.0,-100.0,-100.0,-100.0,-100.0,-100.0,-100.0,-100.0,-100.0,-100.0,-100.0,-100.0,-100.0,-100.0,-100.0,-100.0,-100.0,-100.0,-100.0,-100.0,-100.0,-100.0,-100.0,-100.0,-100.0,-100.0,-100.0,-100.0,-100.0,-100.0,-100.0,-100.0,-100.0,-100.0,-100.0,-100.0,-100.0,-100.0,-100.0,-100.0,-100.0,-100.0,-100.0,-100.0,-100.0,-100.0,-100.0,-100.0,-100.0,-100.0,-100.0,-100.0,-100.0,-100.0,-100.0,-100.0
2021.05.19 171911,106.0,65.0,33.78405965413534,-14.150526018796993,-31.227067233082707,-0.6817202486466165,1.025595720300752,9.889489139097742,0.007496161596616542,2.850860917293242e-05,-0.0030843962703909775,-0.10315535041062453,0.06882966417623189,-1.8954587457771588,1003.2640803759398,-87.0,-86.0,-86.0,-72.0,-70.0,-63.0,-75.0,-79.0,-88.0,-70.0,-84.0,-79.0,-100.0,-56.0,-66.0,-91.0,-88.0,-100.0,-84.0,-81.0,-72.0,-70.0,-79.0,-63.0,-75.0,-79.0,-100.0,-70.0,-85.0,-80.0,-100.0,-56.0,-66.0,-92.0,-100.0,-100.0,-100.0,-100.0,-100.0,-78.0,-100.0,-81.0,-100.0,-100.0,-100.0,-79.0,-100.0,-100.0,-100.0,-100.0,-79.0,-100.0,-100.0,-88.0,-100.0,-86.0,-89.0,-90.0,-92.0,-90.0,-100.0,-100.0,-100.0,-100.0,-100.0,-100.0,-100.0,-100.0,-100.0,-100.0,-100.0,-100.0,-100.0,-100.0,-100.0,-100.0,-100.0,-100.0,-100.0,-100.0,-100.0,-100.0,-100.0,-100.0,-100.0,-100.0,-100.0,-100.0,-100.0,-100.0,-100.0,-100.0,-100.0,-100.0,-100.0,-100.0,-100.0,-100.0,-100.0,-100.0,-100.0,-100.0,-100.0,-100.0,-100.0,-100.0,-100.0,-100.0,-100.0,-100.0,-100.0,-100.0,-100.0,-100.0,-100.0,-100.0,-100.0,-100.0,-100.0,-100.0,-100.0,-100.0,-100.0,-100.0,-100.0,-100.0,-100.0,-100.0,-100.0,-100.0,-100.0,-100.0,-100.0,-100.0,-100.0,-100.0,-100.0,-100.0,-100.0,-100.0,-100.0,-100.0,-100.0
2021.05.19 171923,105.0,66.0,31.17393048965517,-14.975172134482756,-29.498896213793103,-0.53550846,0.9181300862758621,9.897998131034484,0.0023554541727586202,-0.0023299032048275867,0.0016427852100689658,-0.09244495008526173,0.05390433038360081,-1.9579924238139186,1003.2671886206898,-89.0,-90.0,-84.0,-69.0,-61.0,-68.0,-73.0,-100.0,-100.0,-77.0,-83.0,-100.0,-100.0,-61.0,-75.0,-100.0,-87.0,-87.0,-83.0,-73.0,-69.0,-61.0,-78.0,-68.0,-73.0,-100.0,-100.0,-77.0,-83.0,-100.0,-100.0,-61.0,-75.0,-100.0,-86.0,-100.0,-100.0,-100.0,-100.0,-71.0,-100.0,-73.0,-100.0,-100.0,-100.0,-78.0,-100.0,-100.0,-100.0,-100.0,-71.0,-100.0,-100.0,-85.0,-100.0,-85.0,-100.0,-100.0,-91.0,-100.0,-88.0,-89.0,-89.0,-89.0,-100.0,-100.0,-100.0,-100.0,-100.0,-100.0,-100.0,-100.0,-100.0,-100.0,-100.0,-100.0,-100.0,-100.0,-100.0,-100.0,-100.0,-100.0,-100.0,-100.0,-100.0,-100.0,-100.0,-100.0,-100.0,-100.0,-100.0,-100.0,-100.0,-100.0,-100.0,-100.0,-100.0,-100.0,-100.0,-100.0,-100.0,-100.0,-100.0,-100.0,-100.0,-100.0,-100.0,-100.0,-100.0,-100.0,-100.0,-100.0,-100.0,-100.0,-100.0,-100.0,-100.0,-100.0,-100.0,-100.0,-100.0,-100.0,-100.0,-100.0,-100.0,-100.0,-100.0,-100.0,-100.0,-100.0,-100.0,-100.0,-100.0,-100.0,-100.0,-100.0,-100.0,-100.0,-100.0,-100.0,-100.0,-100.0,-100.0
2021.05.19 171935,104.0,67.0,28.70159973333333,-13.848799713333332,-27.791599726666664,-0.5454636888000001,0.8435030143333332,9.936799076666667,0.003725056156666667,-0.0021019872811333332,-0.00307407750568,-0.08456276752054687,0.05484703694780663,-1.9656885290145873,1003.2593571333333,-90.0,-88.0,-100.0,-70.0,-67.0,-70.0,-75.0,-83.0,-100.0,-76.0,-82.0,-100.0,-100.0,-61.0,-75.0,-100.0,-85.0,-88.0,-100.0,-70.0,-70.0,-67.0,-80.0,-70.0,-75.0,-83.0,-100.0,-75.0,-83.0,-100.0,-100.0,-61.0,-75.0,-100.0,-85.0,-100.0,-100.0,-100.0,-100.0,-72.0,-100.0,-70.0,-100.0,-100.0,-100.0,-80.0,-100.0,-100.0,-100.0,-100.0,-81.0,-100.0,-100.0,-82.0,-100.0,-82.0,-100.0,-100.0,-88.0,-89.0,-100.0,-100.0,-100.0,-89.0,-88.0,-88.0,-87.0,-87.0,-100.0,-100.0,-100.0,-100.0,-100.0,-100.0,-100.0,-100.0,-100.0,-100.0,-100.0,-100.0,-100.0,-100.0,-100.0,-100.0,-100.0,-100.0,-100.0,-100.0,-100.0,-100.0,-100.0,-100.0,-100.0,-100.0,-100.0,-100.0,-100.0,-100.0,-100.0,-100.0,-100.0,-100.0,-100.0,-100.0,-100.0,-100.0,-100.0,-100.0,-100.0,-100.0,-100.0,-100.0,-100.0,-100.0,-100.0,-100.0,-100.0,-100.0,-100.0,-100.0,-100.0,-100.0,-100.0,-100.0,-100.0,-100.0,-100.0,-100.0,-100.0,-100.0,-100.0,-100.0,-100.0,-100.0,-100.0,-100.0,-100.0,-100.0,-100.0,-100.0,-100.0,-100.0,-100.0
2021.05.19 171948,103.0,68.0,27.8948433984375,-10.942968515625,-30.484218249999994,-0.43843287017187504,0.789044488125,9.933434679687501,0.004359592360937501,-0.0011534279886718751,-0.0013732629727343753,-0.07923752756323663,0.0441468381650338,-1.877095370553434,1003.259856484375,-100.0,-100.0,-82.0,-69.0,-67.0,-68.0,-76.0,-78.0,-100.0,-77.0,-86.0,-100.0,-100.0,-66.0,-78.0,-100.0,-100.0,-88.0,-82.0,-77.0,-69.0,-67.0,-75.0,-68.0,-76.0,-78.0,-100.0,-77.0,-86.0,-100.0,-100.0,-65.0,-78.0,-100.0,-100.0,-88.0,-100.0,-100.0,-100.0,-68.0,-100.0,-77.0,-100.0,-100.0,-100.0,-100.0,-100.0,-100.0,-79.0,-86.0,-68.0,-100.0,-100.0,-75.0,-100.0,-77.0,-100.0,-100.0,-100.0,-88.0,-89.0,-100.0,-88.0,-100.0,-100.0,-100.0,-100.0,-100.0,-100.0,-100.0,-100.0,-100.0,-100.0,-100.0,-100.0,-100.0,-100.0,-100.0,-100.0,-100.0,-100.0,-100.0,-100.0,-100.0,-100.0,-100.0,-100.0,-100.0,-100.0,-100.0,-100.0,-100.0,-100.0,-100.0,-100.0,-100.0,-100.0,-100.0,-100.0,-100.0,-100.0,-100.0,-100.0,-100.0,-100.0,-100.0,-100.0,-100.0,-100.0,-100.0,-100.0,-100.0,-100.0,-100.0,-100.0,-100.0,-100.0,-100.0,-100.0,-100.0,-100.0,-100.0,-100.0,-100.0,-100.0,-100.0,-100.0,-100.0,-100.0,-100.0,-100.0,-100.0,-100.0,-100.0,-100.0,-100.0,-100.0,-100.0,-100.0,-100.0,-100.0,-100.0,-100.0
2021.05.19 172000,102.0,69.0,28.913332928571425,-12.252380706349207,-32.446666166666674,-0.48269340575396824,0.726719413968254,9.944791424603174,0.005816154446031745,0.0010295212510317458,-0.003790438200555555,-0.07289909652715161,0.048526092308632515,-1.913970294452849,1003.2582646825398,-100.0,-100.0,-80.0,-70.0,-65.0,-72.0,-79.0,-100.0,-100.0,-73.0,-85.0,-100.0,-100.0,-67.0,-79.0,-100.0,-87.0,-100.0,-80.0,-80.0,-70.0,-65.0,-78.0,-72.0,-80.0,-84.0,-100.0,-76.0,-85.0,-100.0,-100.0,-66.0,-79.0,-100.0,-87.0,-100.0,-100.0,-100.0,-100.0,-61.0,-100.0,-80.0,-100.0,-100.0,-100.0,-100.0,-100.0,-100.0,-81.0,-82.0,-62.0,-100.0,-100.0,-83.0,-100.0,-82.0,-100.0,-100.0,-100.0,-100.0,-89.0,-100.0,-88.0,-100.0,-83.0,-83.0,-87.0,-88.0,-100.0,-100.0,-100.0,-100.0,-100.0,-100.0,-100.0,-100.0,-100.0,-100.0,-100.0,-100.0,-100.0,-100.0,-100.0,-100.0,-100.0,-100.0,-100.0,-100.0,-100.0,-100.0,-100.0,-100.0,-100.0,-100.0,-100.0,-100.0,-100.0,-100.0,-100.0,-100.0,-100.0,-100.0,-100.0,-100.0,-100.0,-100.0,-100.0,-100.0,-100.0,-100.0,-100.0,-100.0,-100.0,-100.0,-100.0,-100.0,-100.0,-100.0,-100.0,-100.0,-100.0,-100.0,-100.0,-100.0,-100.0,-100.0,-100.0,-100.0,-100.0,-100.0,-100.0,-100.0,-100.0,-100.0,-100.0,-100.0,-100.0,-100.0,-100.0,-100.0,-100.0,-100.0,-100.0
2021.05.19 172011,101.0,70.0,28.37123037692308,-13.871076657692306,-34.29553803076922,-0.4803836146230769,0.6885934345384616,9.928191996153846,0.0029431486326923083,-0.002301223271615385,-0.003767017864415385,-0.06921575350257061,0.04833588186884294,-1.9729117255944473,1003.2550773846154,-100.0,-100.0,-80.0,-100.0,-65.0,-69.0,-77.0,-85.0,-100.0,-79.0,-100.0,-100.0,-100.0,-68.0,-80.0,-100.0,-85.0,-100.0,-81.0,-71.0,-100.0,-65.0,-77.0,-68.0,-77.0,-100.0,-100.0,-77.0,-100.0,-100.0,-100.0,-67.0,-81.0,-100.0,-100.0,-100.0,-100.0,-100.0,-100.0,-66.0,-100.0,-72.0,-100.0,-100.0,-100.0,-77.0,-100.0,-100.0,-100.0,-100.0,-66.0,-100.0,-100.0,-78.0,-100.0,-79.0,-87.0,-88.0,-73.0,-88.0,-100.0,-100.0,-100.0,-100.0,-86.0,-87.0,-86.0,-86.0,-100.0,-100.0,-100.0,-100.0,-100.0,-100.0,-100.0,-100.0,-100.0,-100.0,-100.0,-100.0,-100.0,-100.0,-100.0,-100.0,-100.0,-100.0,-100.0,-100.0,-100.0,-100.0,-100.0,-100.0,-100.0,-100.0,-100.0,-100.0,-100.0,-100.0,-100.0,-100.0,-100.0,-100.0,-100.0,-100.0,-100.0,-100.0,-100.0,-100.0,-100.0,-100.0,-100.0,-100.0,-100.0,-100.0,-100.0,-100.0,-100.0,-100.0,-100.0,-100.0,-100.0,-100.0,-100.0,-100.0,-100.0,-100.0,-100.0,-100.0,-100.0,-100.0,-100.0,-100.0,-100.0,-100.0,-100.0,-100.0,-100.0,-100.0,-100.0,-100.0,-100.0,-100.0,-100.0
2021.05.19 172024,100.0,71.0,28.622747702290077,-15.327480671755724,-34.69190795419847,-0.5781533926717557,0.7730766092366413,9.92631609923664,0.0019037453553435116,-0.0030718175290839695,0.0018996090471908391,-0.0776079383230846,0.058205990255845816,-2.0100299893444733,1003.2512154961831,-100.0,-100.0,-79.0,-67.0,-64.0,-70.0,-77.0,-87.0,-100.0,-81.0,-100.0,-88.0,-100.0,-68.0,-82.0,-100.0,-81.0,-93.0,-79.0,-72.0,-66.0,-64.0,-78.0,-70.0,-78.0,-87.0,-100.0,-81.0,-100.0,-89.0,-100.0,-69.0,-82.0,-100.0,-81.0,-100.0,-100.0,-100.0,-100.0,-62.0,-100.0,-72.0,-100.0,-100.0,-100.0,-79.0,-100.0,-100.0,-79.0,-78.0,-62.0,-100.0,-100.0,-82.0,-100.0,-82.0,-88.0,-88.0,-87.0,-100.0,-88.0,-89.0,-88.0,-88.0,-87.0,-88.0,-100.0,-100.0,-100.0,-100.0,-100.0,-100.0,-100.0,-100.0,-100.0,-100.0,-100.0,-100.0,-100.0,-100.0,-100.0,-100.0,-100.0,-100.0,-100.0,-100.0,-100.0,-100.0,-100.0,-100.0,-100.0,-100.0,-100.0,-100.0,-100.0,-100.0,-100.0,-100.0,-100.0,-100.0,-100.0,-100.0,-100.0,-100.0,-100.0,-100.0,-100.0,-100.0,-100.0,-100.0,-100.0,-100.0,-100.0,-100.0,-100.0,-100.0,-100.0,-100.0,-100.0,-100.0,-100.0,-100.0,-100.0,-100.0,-100.0,-100.0,-100.0,-100.0,-100.0,-100.0,-100.0,-100.0,-100.0,-100.0,-100.0,-100.0,-100.0,-100.0,-100.0,-100.0,-100.0,-100.0,-100.0
2021.05.19 172035,99.0,72.0,28.171532532846715,-17.02642313868613,-34.72116740145985,-0.5978696429927007,0.9077622051094891,9.90639069562044,0.0034189101664233576,-0.00038737313970802915,-0.0023158614514160584,-0.09135214519435468,0.06012406504719792,-2.0535827544483825,1003.239553722628,-100.0,-100.0,-76.0,-72.0,-62.0,-65.0,-80.0,-100.0,-100.0,-81.0,-100.0,-87.0,-100.0,-73.0,-86.0,-100.0,-100.0,-100.0,-80.0,-70.0,-70.0,-63.0,-81.0,-65.0,-80.0,-100.0,-100.0,-80.0,-100.0,-100.0,-100.0,-75.0,-87.0,-100.0,-85.0,-90.0,-100.0,-100.0,-100.0,-66.0,-100.0,-70.0,-100.0,-100.0,-100.0,-82.0,-100.0,-100.0,-82.0,-82.0,-65.0,-100.0,-100.0,-82.0,-100.0,-81.0,-87.0,-87.0,-100.0,-86.0,-88.0,-100.0,-88.0,-90.0,-84.0,-83.0,-83.0,-83.0,-100.0,-100.0,-100.0,-100.0,-100.0,-100.0,-100.0,-100.0,-100.0,-100.0,-100.0,-100.0,-100.0,-100.0,-100.0,-100.0,-100.0,-100.0,-100.0,-100.0,-100.0,-100.0,-100.0,-100.0,-100.0,-100.0,-100.0,-100.0,-100.0,-100.0,-100.0,-100.0,-100.0,-100.0,-100.0,-100.0,-100.0,-100.0,-100.0,-100.0,-100.0,-100.0,-100.0,-100.0,-100.0,-100.0,-100.0,-100.0,-100.0,-100.0,-100.0,-100.0,-100.0,-100.0,-100.0,-100.0,-100.0,-100.0,-100.0,-100.0,-100.0,-100.0,-100.0,-100.0,-100.0,-100.0,-100.0,-100.0,-100.0,-100.0,-100.0,-100.0,-100.0,-100.0,-100.0
2021.05.19 172047,98.0,73.0,27.70781919548872,-13.420601266917291,-37.17473646616542,-0.5239501398120301,0.8296072193984962,9.917500319548871,-0.0017724554481203015,0.0002535641938345864,0.00022713627374436093,-0.08346018822569594,0.052731066199957835,-1.9469336907666428,1003.2339860150377,-100.0,-100.0,-80.0,-66.0,-59.0,-71.0,-77.0,-100.0,-100.0,-78.0,-100.0,-88.0,-100.0,-76.0,-100.0,-100.0,-85.0,-100.0,-79.0,-67.0,-66.0,-59.0,-80.0,-71.0,-77.0,-89.0,-100.0,-79.0,-88.0,-88.0,-100.0,-77.0,-100.0,-100.0,-100.0,-100.0,-100.0,-100.0,-100.0,-67.0,-100.0,-67.0,-100.0,-100.0,-100.0,-81.0,-100.0,-100.0,-85.0,-83.0,-67.0,-100.0,-100.0,-80.0,-100.0,-81.0,-88.0,-86.0,-100.0,-82.0,-100.0,-100.0,-100.0,-100.0,-85.0,-85.0,-79.0,-78.0,-100.0,-100.0,-100.0,-100.0,-100.0,-100.0,-100.0,-100.0,-100.0,-100.0,-100.0,-100.0,-100.0,-100.0,-100.0,-100.0,-100.0,-100.0,-100.0,-100.0,-100.0,-100.0,-100.0,-100.0,-100.0,-100.0,-100.0,-100.0,-100.0,-100.0,-100.0,-100.0,-100.0,-100.0,-100.0,-100.0,-100.0,-100.0,-100.0,-100.0,-100.0,-100.0,-100.0,-100.0,-100.0,-100.0,-100.0,-100.0,-100.0,-100.0,-100.0,-100.0,-100.0,-100.0,-100.0,-100.0,-100.0,-100.0,-100.0,-100.0,-100.0,-100.0,-100.0,-100.0,-100.0,-100.0,-100.0,-100.0,-100.0,-100.0,-100.0,-100.0,-100.0,-100.0,-100.0
2021.05.19 172100,97.0,74.0,30.805969716417913,-8.646268428358209,-34.180298119402984,-0.5561149929850746,0.7979546152238807,9.93034407835821,0.004832272177985074,0.0005615675217910446,-0.0025187066264776127,-0.08008607732715887,0.0559752080033519,-1.7670603554640243,1003.2263232835819,-100.0,-100.0,-76.0,-60.0,-65.0,-66.0,-79.0,-89.0,-100.0,-84.0,-89.0,-100.0,-100.0,-70.0,-100.0,-100.0,-100.0,-100.0,-76.0,-72.0,-60.0,-65.0,-75.0,-66.0,-79.0,-88.0,-100.0,-83.0,-89.0,-100.0,-100.0,-70.0,-100.0,-100.0,-80.0,-100.0,-100.0,-100.0,-100.0,-67.0,-100.0,-68.0,-100.0,-100.0,-100.0,-75.0,-100.0,-100.0,-79.0,-81.0,-67.0,-100.0,-100.0,-82.0,-100.0,-81.0,-86.0,-87.0,-84.0,-86.0,-88.0,-89.0,-88.0,-89.0,-84.0,-85.0,-77.0,-78.0,-92.0,-100.0,-100.0,-100.0,-100.0,-100.0,-100.0,-100.0,-100.0,-100.0,-100.0,-100.0,-100.0,-100.0,-100.0,-100.0,-100.0,-100.0,-100.0,-100.0,-100.0,-100.0,-100.0,-100.0,-100.0,-100.0,-100.0,-100.0,-100.0,-100.0,-100.0,-100.0,-100.0,-100.0,-100.0,-100.0,-100.0,-100.0,-100.0,-100.0,-100.0,-100.0,-100.0,-100.0,-100.0,-100.0,-100.0,-100.0,-100.0,-100.0,-100.0,-100.0,-100.0,-100.0,-100.0,-100.0,-100.0,-100.0,-100.0,-100.0,-100.0,-100.0,-100.0,-100.0,-100.0,-100.0,-100.0,-100.0,-100.0,-100.0,-100.0,-100.0,-100.0,-100.0,-100.0
2021.05.19 172114,96.0,75.0,35.34412174045802,-13.400152450381679,-33.25236595419848,-0.6111980419160304,0.7798756151145038,9.906138366412215,0.004878798933587787,-0.0031510900286259537,-0.001117412304519084,-0.07865606441752598,0.06134156338365759,-1.8788585662841797,1003.2205378625954,-100.0,-100.0,-77.0,-60.0,-62.0,-66.0,-75.0,-100.0,-100.0,-100.0,-89.0,-87.0,-100.0,-74.0,-100.0,-100.0,-84.0,-100.0,-77.0,-65.0,-60.0,-62.0,-71.0,-66.0,-75.0,-100.0,-100.0,-100.0,-88.0,-86.0,-100.0,-74.0,-100.0,-100.0,-86.0,-100.0,-100.0,-100.0,-100.0,-74.0,-100.0,-65.0,-100.0,-100.0,-100.0,-71.0,-100.0,-100.0,-100.0,-100.0,-74.0,-100.0,-100.0,-88.0,-100.0,-87.0,-86.0,-86.0,-81.0,-81.0,-88.0,-88.0,-88.0,-88.0,-86.0,-86.0,-85.0,-84.0,-100.0,-89.0,-88.0,-100.0,-100.0,-100.0,-100.0,-100.0,-100.0,-100.0,-100.0,-100.0,-100.0,-100.0,-100.0,-100.0,-100.0,-100.0,-100.0,-100.0,-100.0,-100.0,-100.0,-100.0,-100.0,-100.0,-100.0,-100.0,-100.0,-100.0,-100.0,-100.0,-100.0,-100.0,-100.0,-100.0,-100.0,-100.0,-100.0,-100.0,-100.0,-100.0,-100.0,-100.0,-100.0,-100.0,-100.0,-100.0,-100.0,-100.0,-100.0,-100.0,-100.0,-100.0,-100.0,-100.0,-100.0,-100.0,-100.0,-100.0,-100.0,-100.0,-100.0,-100.0,-100.0,-100.0,-100.0,-100.0,-100.0,-100.0,-100.0,-100.0,-100.0,-100.0,-100.0
2021.05.19 172125,95.0,76.0,33.953283231343285,-16.776716201492537,-33.25208917164179,-0.6289438285820895,0.970503213880597,9.893893902985074,0.009910659660074627,-0.0032495022518656703,0.0016798520924029847,-0.0976758791383967,0.06341862678527826,-1.9658644973342099,1003.2126852238808,-100.0,-100.0,-75.0,-63.0,-56.0,-70.0,-75.0,-86.0,-100.0,-85.0,-100.0,-100.0,-100.0,-71.0,-100.0,-100.0,-80.0,-100.0,-75.0,-63.0,-63.0,-57.0,-72.0,-70.0,-76.0,-100.0,-100.0,-87.0,-100.0,-100.0,-100.0,-71.0,-100.0,-100.0,-79.0,-90.0,-100.0,-100.0,-100.0,-78.0,-100.0,-63.0,-100.0,-100.0,-100.0,-71.0,-100.0,-100.0,-79.0,-79.0,-78.0,-100.0,-100.0,-80.0,-100.0,-79.0,-86.0,-87.0,-81.0,-81.0,-86.0,-86.0,-85.0,-86.0,-100.0,-87.0,-79.0,-80.0,-100.0,-87.0,-87.0,-100.0,-100.0,-100.0,-100.0,-100.0,-100.0,-100.0,-100.0,-100.0,-100.0,-100.0,-100.0,-100.0,-100.0,-100.0,-100.0,-100.0,-100.0,-100.0,-100.0,-100.0,-100.0,-100.0,-100.0,-100.0,-100.0,-100.0,-100.0,-100.0,-100.0,-100.0,-100.0,-100.0,-100.0,-100.0,-100.0,-100.0,-100.0,-100.0,-100.0,-100.0,-100.0,-100.0,-100.0,-100.0,-100.0,-100.0,-100.0,-100.0,-100.0,-100.0,-100.0,-100.0,-100.0,-100.0,-100.0,-100.0,-100.0,-100.0,-100.0,-100.0,-100.0,-100.0,-100.0,-100.0,-100.0,-100.0,-100.0,-100.0,-100.0,-100.0,-100.0
2021.05.19 172137,94.0,77.0,34.2135760729927,-15.936350043795619,-31.35766377372263,-0.759299690948905,0.7005263590510948,9.912629716788322,0.008038299850364963,-0.0017027399384671534,0.0016213210141459863,-0.07042777766711518,0.07630065233059169,-1.9734484688208922,1003.2498328467154,-100.0,-100.0,-71.0,-56.0,-56.0,-75.0,-77.0,-100.0,-100.0,-100.0,-100.0,-100.0,-100.0,-75.0,-100.0,-100.0,-81.0,-100.0,-71.0,-65.0,-55.0,-56.0,-67.0,-74.0,-78.0,-100.0,-100.0,-100.0,-100.0,-100.0,-100.0,-74.0,-100.0,-100.0,-80.0,-100.0,-100.0,-100.0,-100.0,-77.0,-100.0,-64.0,-100.0,-100.0,-100.0,-68.0,-100.0,-100.0,-75.0,-75.0,-77.0,-100.0,-100.0,-79.0,-100.0,-79.0,-86.0,-86.0,-80.0,-79.0,-80.0,-83.0,-80.0,-82.0,-100.0,-100.0,-76.0,-76.0,-100.0,-88.0,-87.0,-88.0,-91.0,-89.0,-90.0,-100.0,-100.0,-100.0,-100.0,-100.0,-100.0,-100.0,-100.0,-100.0,-100.0,-100.0,-100.0,-100.0,-100.0,-100.0,-100.0,-100.0,-100.0,-100.0,-100.0,-100.0,-100.0,-100.0,-100.0,-100.0,-100.0,-100.0,-100.0,-100.0,-100.0,-100.0,-100.0,-100.0,-100.0,-100.0,-100.0,-100.0,-100.0,-100.0,-100.0,-100.0,-100.0,-100.0,-100.0,-100.0,-100.0,-100.0,-100.0,-100.0,-100.0,-100.0,-100.0,-100.0,-100.0,-100.0,-100.0,-100.0,-100.0,-100.0,-100.0,-100.0,-100.0,-100.0,-100.0,-100.0,-100.0,-100.0,-100.0
2021.05.19 172149,93.0,78.0,35.29249953333333,-14.039499741666667,-30.936499616666666,-0.6686411413583334,0.65557239275,9.935442341666667,0.004001981902500001,-0.0017232508970833334,0.0016031140915166663,-0.06574914474040265,0.06718395103622846,-1.913419145345688,1003.2840840833331,-100.0,-100.0,-80.0,-58.0,-58.0,-75.0,-80.0,-100.0,-100.0,-100.0,-100.0,-89.0,-100.0,-76.0,-100.0,-100.0,-82.0,-100.0,-80.0,-65.0,-57.0,-59.0,-100.0,-75.0,-79.0,-100.0,-100.0,-100.0,-100.0,-100.0,-100.0,-100.0,-100.0,-100.0,-82.0,-100.0,-100.0,-100.0,-100.0,-75.0,-100.0,-66.0,-100.0,-100.0,-100.0,-72.0,-100.0,-100.0,-69.0,-69.0,-74.0,-100.0,-100.0,-72.0,-100.0,-72.0,-81.0,-81.0,-78.0,-77.0,-83.0,-71.0,-84.0,-71.0,-100.0,-100.0,-71.0,-72.0,-100.0,-83.0,-83.0,-100.0,-85.0,-100.0,-85.0,-90.0,-90.0,-86.0,-73.0,-100.0,-100.0,-100.0,-100.0,-100.0,-100.0,-100.0,-100.0,-100.0,-100.0,-100.0,-100.0,-100.0,-100.0,-100.0,-100.0,-100.0,-100.0,-100.0,-100.0,-100.0,-100.0,-100.0,-100.0,-100.0,-100.0,-100.0,-100.0,-100.0,-100.0,-100.0,-100.0,-100.0,-100.0,-100.0,-100.0,-100.0,-100.0,-100.0,-100.0,-100.0,-100.0,-100.0,-100.0,-100.0,-100.0,-100.0,-100.0,-100.0,-100.0,-100.0,-100.0,-100.0,-100.0,-100.0,-100.0,-100.0,-100.0,-100.0,-100.0,-100.0,-100.0,-100.0,-100.0
2021.05.19 172201,92.0,79.0,34.72164146268657,-12.700746022388062,-32.41298458208955,-0.4094031239701493,0.7214450258955224,9.940564458955222,0.0017916221582089551,-0.0009336850580597018,-0.0033939765960447764,-0.0724375988982284,0.04114255997171594,-1.8677968267184586,1003.320436641791,-100.0,-100.0,-74.0,-54.0,-51.0,-70.0,-81.0,-100.0,-100.0,-100.0,-100.0,-100.0,-100.0,-80.0,-100.0,-100.0,-100.0,-100.0,-77.0,0.0,-53.0,-51.0,-64.0,-70.0,-81.0,-100.0,-100.0,-100.0,-100.0,-100.0,-100.0,-84.0,-100.0,-100.0,-100.0,-100.0,-100.0,-100.0,-100.0,-73.0,-100.0,0.0,-100.0,-100.0,-100.0,-65.0,-100.0,-100.0,-64.0,-63.0,-74.0,-100.0,-100.0,-73.0,-100.0,-73.0,-87.0,-85.0,-75.0,-76.0,-80.0,-73.0,-80.0,-73.0,-100.0,-100.0,-74.0,-74.0,-100.0,-86.0,-85.0,-89.0,-100.0,-100.0,-100.0,-100.0,-100.0,-100.0,-100.0,-92.0,-100.0,-100.0,-100.0,-100.0,-100.0,-100.0,-100.0,-100.0,-100.0,-100.0,-100.0,-100.0,-100.0,-100.0,-100.0,-100.0,-100.0,-100.0,-100.0,-100.0,-100.0,-100.0,-100.0,-100.0,-100.0,-100.0,-100.0,-100.0,-100.0,-100.0,-100.0,-100.0,-100.0,-100.0,-100.0,-100.0,-100.0,-100.0,-100.0,-100.0,-100.0,-100.0,-100.0,-100.0,-100.0,-100.0,-100.0,-100.0,-100.0,-100.0,-100.0,-100.0,-100.0,-100.0,-100.0,-100.0,-100.0,-100.0,-100.0,-100.0,-100.0,-100.0,-100.0
2021.05.19 172213,91.0,80.0,33.09940251492537,-11.073134149253733,-32.773880231343284,-0.49833078216417914,0.8116770269402985,9.935936720149254,0.0027307134455223877,0.002690478453134328,-0.0043057154357910455,-0.08143278127953182,0.05009260438660627,-1.826616226737179,1003.3182704477613,-100.0,-100.0,-72.0,-54.0,-54.0,-75.0,-80.0,-91.0,-100.0,-100.0,-100.0,-100.0,-100.0,-85.0,-100.0,-100.0,-100.0,-100.0,-71.0,-59.0,-54.0,-54.0,-63.0,-75.0,-80.0,-89.0,-100.0,-100.0,-100.0,-100.0,-100.0,-85.0,-100.0,-100.0,-79.0,-100.0,-100.0,-100.0,-100.0,-85.0,-100.0,-58.0,-100.0,-100.0,-100.0,-64.0,-100.0,-100.0,-67.0,-67.0,-85.0,-100.0,-100.0,-72.0,-100.0,-73.0,-83.0,-84.0,-72.0,-72.0,-80.0,-78.0,-80.0,-79.0,-100.0,-100.0,-74.0,-74.0,-100.0,-82.0,-82.0,-100.0,-100.0,-100.0,-100.0,-100.0,-100.0,-100.0,-100.0,-100.0,-91.0,-89.0,-87.0,-100.0,-100.0,-100.0,-100.0,-100.0,-100.0,-100.0,-100.0,-100.0,-100.0,-100.0,-100.0,-100.0,-100.0,-100.0,-100.0,-100.0,-100.0,-100.0,-100.0,-100.0,-100.0,-100.0,-100.0,-100.0,-100.0,-100.0,-100.0,-100.0,-100.0,-100.0,-100.0,-100.0,-100.0,-100.0,-100.0,-100.0,-100.0,-100.0,-100.0,-100.0,-100.0,-100.0,-100.0,-100.0,-100.0,-100.0,-100.0,-100.0,-100.0,-100.0,-100.0,-100.0,-100.0,-100.0,-100.0,-100.0,-100.0,-100.0,-100.0
2021.05.19 172225,90.0,81.0,31.054999492424244,-11.53954518560606,-33.544545,-0.5243461828787879,0.8379417665909091,9.910084796969699,0.001676066259848486,-0.0022665504895454545,0.0014272589804696968,-0.08437264346602284,0.05263825112982,-1.854614293936527,1003.3128917424242,-100.0,-100.0,-69.0,-58.0,-55.0,-73.0,-82.0,-92.0,-100.0,-100.0,-100.0,-100.0,-100.0,-100.0,-100.0,-100.0,-72.0,-100.0,-69.0,-64.0,-58.0,-55.0,-72.0,-73.0,-81.0,-90.0,-100.0,-100.0,-100.0,-100.0,-100.0,-84.0,-100.0,-100.0,-100.0,-89.0,-100.0,-100.0,-100.0,-74.0,-100.0,-63.0,-100.0,-100.0,-100.0,-70.0,-100.0,-100.0,-56.0,-57.0,-82.0,-100.0,-100.0,-72.0,-100.0,-72.0,-84.0,-82.0,-72.0,-72.0,-80.0,-74.0,-80.0,-74.0,-100.0,-100.0,-100.0,-100.0,-100.0,-81.0,-81.0,-88.0,-100.0,-88.0,-100.0,-100.0,-100.0,-100.0,-100.0,-100.0,-80.0,-100.0,-100.0,-88.0,-100.0,-100.0,-100.0,-100.0,-100.0,-100.0,-100.0,-100.0,-100.0,-100.0,-100.0,-100.0,-100.0,-100.0,-100.0,-100.0,-100.0,-100.0,-100.0,-100.0,-100.0,-100.0,-100.0,-100.0,-100.0,-100.0,-100.0,-100.0,-100.0,-100.0,-100.0,-100.0,-100.0,-100.0,-100.0,-100.0,-100.0,-100.0,-100.0,-100.0,-100.0,-100.0,-100.0,-100.0,-100.0,-100.0,-100.0,-100.0,-100.0,-100.0,-100.0,-100.0,-100.0,-100.0,-100.0,-100.0,-100.0,-100.0,-100.0
2021.05.19 172236,89.0,82.0,31.012856698412698,-12.366666396825398,-32.47142796031746,-0.5827968921428571,0.9877143635714285,9.897875031746032,0.005719191759523809,-0.003939818924682539,-0.0032959282054920644,-0.09946064769275602,0.05869395037492113,-1.8678609738274226,1003.3027737301587,-100.0,-100.0,-68.0,-51.0,-52.0,-74.0,-80.0,-100.0,-100.0,-100.0,-100.0,-91.0,-100.0,-87.0,-100.0,-100.0,-79.0,-100.0,-69.0,-63.0,-51.0,-52.0,-72.0,-74.0,-80.0,-90.0,-100.0,-100.0,-100.0,-100.0,-100.0,-87.0,-100.0,-100.0,-78.0,-100.0,-100.0,-100.0,-100.0,-85.0,-100.0,-63.0,-100.0,-100.0,-100.0,-71.0,-100.0,-100.0,-60.0,-60.0,-100.0,-100.0,-100.0,-69.0,-100.0,-69.0,-81.0,-81.0,-65.0,-66.0,-78.0,-70.0,-78.0,-70.0,-100.0,-100.0,-69.0,-69.0,-100.0,-80.0,-80.0,-88.0,-100.0,-86.0,-100.0,-100.0,-100.0,-81.0,-100.0,-100.0,-86.0,-88.0,-86.0,-89.0,-100.0,-100.0,-100.0,-100.0,-100.0,-100.0,-100.0,-100.0,-100.0,-100.0,-100.0,-100.0,-100.0,-100.0,-100.0,-100.0,-100.0,-100.0,-100.0,-100.0,-100.0,-100.0,-100.0,-100.0,-100.0,-100.0,-100.0,-100.0,-100.0,-100.0,-100.0,-100.0,-100.0,-100.0,-100.0,-100.0,-100.0,-100.0,-100.0,-100.0,-100.0,-100.0,-100.0,-100.0,-100.0,-100.0,-100.0,-100.0,-100.0,-100.0,-100.0,-100.0,-100.0,-100.0,-100.0,-100.0,-100.0,-100.0,-100.0
2021.05.19 172247,88.0,83.0,31.344090469696972,-11.353181560606059,-31.88045425,-0.5893362311363636,0.8130376843181818,9.906330166666665,0.008377072566666668,-0.0043768124980303035,-0.0037974902984242408,-0.08188436202930677,0.05920092813727074,-1.8537957252878132,1003.3000247727274,-100.0,-100.0,-67.0,-53.0,-50.0,-74.0,-80.0,-100.0,-100.0,-100.0,-100.0,-91.0,-100.0,-83.0,-100.0,-100.0,-74.0,-100.0,-66.0,-55.0,-54.0,-50.0,-67.0,-73.0,-80.0,-100.0,-100.0,-100.0,-100.0,-89.0,-100.0,-84.0,-100.0,-100.0,-75.0,-100.0,-100.0,-100.0,-100.0,-81.0,-100.0,-60.0,-100.0,-100.0,-100.0,-67.0,-100.0,-100.0,-62.0,-62.0,-83.0,-100.0,-100.0,-71.0,-100.0,-70.0,-75.0,-75.0,-71.0,-71.0,-80.0,-71.0,-79.0,-71.0,-100.0,-100.0,-65.0,-65.0,-100.0,-80.0,-80.0,-88.0,-93.0,-88.0,-100.0,-100.0,-100.0,-100.0,-100.0,-100.0,-100.0,-87.0,-87.0,-100.0,-91.0,-100.0,-100.0,-100.0,-100.0,-100.0,-100.0,-100.0,-100.0,-100.0,-100.0,-100.0,-100.0,-100.0,-100.0,-100.0,-100.0,-100.0,-100.0,-100.0,-100.0,-100.0,-100.0,-100.0,-100.0,-100.0,-100.0,-100.0,-100.0,-100.0,-100.0,-100.0,-100.0,-100.0,-100.0,-100.0,-100.0,-100.0,-100.0,-100.0,-100.0,-100.0,-100.0,-100.0,-100.0,-100.0,-100.0,-100.0,-100.0,-100.0,-100.0,-100.0,-100.0,-100.0,-100.0,-100.0,-100.0,-100.0,-100.0
2021.05.19 172258,87.0,84.0,31.568142264285715,-11.774999721428571,-32.04985682857143,-0.49142490675,0.9382820945714286,9.916607414285714,0.001913404495,0.0014576118194285714,-5.4976211857147135e-06,-0.0942331438085862,0.0495417575451678,-1.849068649326052,1003.2931777857144,-100.0,-100.0,-71.0,-51.0,-48.0,-74.0,-84.0,-100.0,-100.0,-100.0,-100.0,-92.0,-100.0,-87.0,-100.0,-100.0,-69.0,-100.0,-72.0,-52.0,-51.0,-48.0,-62.0,-74.0,-83.0,-100.0,-100.0,-100.0,-100.0,-100.0,-100.0,-86.0,-100.0,-100.0,-69.0,-91.0,-100.0,-100.0,-100.0,-85.0,-100.0,-52.0,-100.0,-100.0,-100.0,-62.0,-100.0,-100.0,-63.0,-62.0,-84.0,-100.0,-100.0,-63.0,-100.0,-63.0,-74.0,-74.0,-72.0,-72.0,-80.0,-70.0,-79.0,-70.0,-100.0,-100.0,-67.0,-67.0,-100.0,-80.0,-79.0,-89.0,-100.0,-89.0,-100.0,-100.0,-100.0,-87.0,-100.0,-100.0,-100.0,-87.0,-87.0,-90.0,-100.0,-86.0,-84.0,-100.0,-100.0,-100.0,-100.0,-100.0,-100.0,-100.0,-100.0,-100.0,-100.0,-100.0,-100.0,-100.0,-100.0,-100.0,-100.0,-100.0,-100.0,-100.0,-100.0,-100.0,-100.0,-100.0,-100.0,-100.0,-100.0,-100.0,-100.0,-100.0,-100.0,-100.0,-100.0,-100.0,-100.0,-100.0,-100.0,-100.0,-100.0,-100.0,-100.0,-100.0,-100.0,-100.0,-100.0,-100.0,-100.0,-100.0,-100.0,-100.0,-100.0,-100.0,-100.0,-100.0,-100.0,-100.0,-100.0
2021.05.19 172311,86.0,85.0,31.563477804347826,-11.5878258115942,-31.82956463768116,-0.4926133671739131,0.853003778768116,9.905253659420291,0.00814347090326087,-0.0005395886742028976,-0.005353224541376812,-0.0859608793550211,0.04963276941545195,-1.8523524187613225,1003.288665,-100.0,-100.0,-68.0,-47.0,-43.0,-80.0,-84.0,-88.0,-100.0,-100.0,-100.0,-90.0,-100.0,-100.0,-100.0,-100.0,-70.0,-92.0,-68.0,-60.0,-47.0,-44.0,-63.0,-80.0,-83.0,-88.0,-100.0,-100.0,-100.0,-100.0,-100.0,-100.0,-100.0,-100.0,-71.0,-100.0,-100.0,-100.0,-100.0,-87.0,-100.0,-61.0,-100.0,-100.0,-100.0,-62.0,-100.0,-100.0,-60.0,-60.0,-86.0,-100.0,-79.0,-66.0,-89.0,-66.0,-73.0,-73.0,-69.0,-70.0,-79.0,-68.0,-79.0,-68.0,-100.0,-100.0,-72.0,-72.0,-100.0,-75.0,-75.0,-100.0,-100.0,-100.0,-100.0,-100.0,-100.0,-83.0,-100.0,-100.0,-100.0,-84.0,-83.0,-100.0,-100.0,-90.0,-100.0,-92.0,-100.0,-100.0,-100.0,-100.0,-100.0,-100.0,-100.0,-100.0,-100.0,-100.0,-100.0,-100.0,-100.0,-100.0,-100.0,-100.0,-100.0,-100.0,-100.0,-100.0,-100.0,-100.0,-100.0,-100.0,-100.0,-100.0,-100.0,-100.0,-100.0,-100.0,-100.0,-100.0,-100.0,-100.0,-100.0,-100.0,-100.0,-100.0,-100.0,-100.0,-100.0,-100.0,-100.0,-100.0,-100.0,-100.0,-100.0,-100.0,-100.0,-100.0,-100.0,-100.0,-100.0,-100.0,-100.0
2021.05.19 172323,85.0,86.0,32.07818143181819,-11.927726965909091,-31.50181766666667,-0.6328503623484849,0.8814014818939395,9.911046147727271,0.00651208272159091,-0.0038075971472727277,-0.003917812116575757,-0.08863601633206458,0.06367908119732003,-1.8595073521137238,1003.2826831060609,-100.0,-100.0,0.0,-45.0,-45.0,-73.0,-82.0,-100.0,-100.0,-100.0,-100.0,-87.0,-100.0,-83.0,-100.0,-100.0,-74.0,-100.0,0.0,0.0,-44.0,-45.0,-63.0,-74.0,-82.0,-100.0,-100.0,-100.0,-100.0,-100.0,-100.0,-85.0,-100.0,-100.0,-74.0,-100.0,-100.0,-100.0,-100.0,-87.0,-100.0,0.0,-100.0,-100.0,-100.0,-62.0,-100.0,-100.0,-57.0,-57.0,-86.0,-100.0,-100.0,-60.0,-100.0,-60.0,-71.0,-71.0,-69.0,-69.0,-81.0,-67.0,-82.0,-67.0,-100.0,-100.0,-75.0,-75.0,-87.0,-75.0,-76.0,-84.0,-100.0,-86.0,-100.0,-100.0,-100.0,-83.0,-100.0,-100.0,-100.0,-87.0,-86.0,-93.0,-100.0,-86.0,-87.0,-100.0,-90.0,-87.0,-100.0,-100.0,-100.0,-100.0,-100.0,-100.0,-100.0,-100.0,-100.0,-100.0,-100.0,-100.0,-100.0,-100.0,-100.0,-100.0,-100.0,-100.0,-100.0,-100.0,-100.0,-100.0,-100.0,-100.0,-100.0,-100.0,-100.0,-100.0,-100.0,-100.0,-100.0,-100.0,-100.0,-100.0,-100.0,-100.0,-100.0,-100.0,-100.0,-100.0,-100.0,-100.0,-100.0,-100.0,-100.0,-100.0,-100.0,-100.0,-100.0,-100.0,-100.0,-100.0,-100.0
2021.05.19 172335,84.0,87.0,31.678646195488717,-11.06661639849624,-32.23127771428572,-0.6007649516541352,0.5308989345112781,9.946519609022555,0.003559984987593985,-0.001629554292857143,-0.0017708064323007516,-0.05327887344349142,0.06033574992832829,-1.872216286515831,1003.2838010526316,-100.0,-100.0,-64.0,-43.0,-42.0,-72.0,-83.0,-100.0,-100.0,-91.0,-100.0,-100.0,-100.0,-100.0,-100.0,-100.0,-71.0,-91.0,-67.0,-68.0,-43.0,-42.0,-67.0,-72.0,-83.0,-100.0,-100.0,-100.0,-100.0,-100.0,-100.0,-100.0,-100.0,-100.0,-70.0,-90.0,-100.0,-100.0,-100.0,-87.0,-100.0,-68.0,-100.0,-100.0,-100.0,-66.0,-100.0,-100.0,-61.0,-61.0,-87.0,-100.0,-90.0,-57.0,-91.0,-57.0,-73.0,-74.0,-78.0,-78.0,-79.0,-67.0,-79.0,-67.0,-100.0,-100.0,-73.0,-72.0,-84.0,-68.0,-68.0,-89.0,-100.0,-90.0,-100.0,-100.0,-100.0,-84.0,-100.0,-100.0,-100.0,-81.0,-81.0,-89.0,-92.0,-100.0,-88.0,-100.0,-100.0,-84.0,-100.0,-100.0,-100.0,-100.0,-100.0,-100.0,-100.0,-100.0,-100.0,-100.0,-100.0,-100.0,-100.0,-100.0,-100.0,-100.0,-100.0,-100.0,-100.0,-100.0,-100.0,-100.0,-100.0,-100.0,-100.0,-100.0,-100.0,-100.0,-100.0,-100.0,-100.0,-100.0,-100.0,-100.0,-100.0,-100.0,-100.0,-100.0,-100.0,-100.0,-100.0,-100.0,-100.0,-100.0,-100.0,-100.0,-100.0,-100.0,-100.0,-100.0,-100.0,-100.0,-100.0
2021.05.19 172346,83.0,88.0,31.19130401449275,-12.349564949275361,-31.936086601449276,-0.5155498254347826,0.7579441242753624,9.934470829710143,0.004296790622826088,0.0005006528893478268,-0.00384819437284058,-0.07607053827656347,0.051838282833172745,-1.8903799955395684,1003.2802099999999,-100.0,-100.0,-64.0,-40.0,-43.0,-73.0,-81.0,-89.0,-100.0,-100.0,-100.0,-100.0,-100.0,-100.0,-100.0,-100.0,-69.0,-90.0,-64.0,-64.0,-40.0,-43.0,-70.0,-72.0,-82.0,-88.0,-100.0,-100.0,-100.0,-100.0,-100.0,-100.0,-100.0,-100.0,-69.0,-90.0,-100.0,-100.0,-100.0,-100.0,-100.0,-64.0,-100.0,-100.0,-100.0,-70.0,-100.0,-100.0,-62.0,-62.0,-100.0,-100.0,-100.0,-59.0,-100.0,-59.0,-70.0,-70.0,-75.0,-75.0,-82.0,-70.0,-82.0,-71.0,-100.0,-100.0,-81.0,-81.0,-86.0,-70.0,-70.0,-100.0,-100.0,-100.0,-100.0,-100.0,-100.0,-81.0,-100.0,-100.0,-100.0,-77.0,-77.0,-100.0,-100.0,-78.0,-88.0,-100.0,-100.0,-100.0,-100.0,-100.0,-100.0,-100.0,-100.0,-100.0,-100.0,-100.0,-100.0,-100.0,-100.0,-100.0,-100.0,-100.0,-100.0,-100.0,-100.0,-100.0,-100.0,-100.0,-100.0,-100.0,-100.0,-100.0,-100.0,-100.0,-100.0,-100.0,-100.0,-100.0,-100.0,-100.0,-100.0,-100.0,-100.0,-100.0,-100.0,-100.0,-100.0,-100.0,-100.0,-100.0,-100.0,-100.0,-100.0,-100.0,-100.0,-100.0,-100.0,-100.0,-100.0,-100.0,-100.0
2021.05.19 172359,82.0,89.0,31.293236935251798,-12.649640025179856,-32.10776937410072,-0.4769085377841726,0.7212623677697841,9.934225111510791,0.0013210597500000014,0.0013583226102158274,-0.0042773794263741005,-0.07243099350401819,0.04793591653800853,-1.9009056563000026,1003.2762797122302,-100.0,-100.0,-68.0,-37.0,-40.0,-79.0,-83.0,-100.0,-100.0,-100.0,-100.0,-100.0,-100.0,-85.0,-100.0,-100.0,-65.0,-100.0,-69.0,-70.0,-38.0,-40.0,-66.0,-78.0,-82.0,-100.0,-100.0,-100.0,-100.0,-100.0,-100.0,-84.0,-100.0,-100.0,-64.0,-100.0,-100.0,-100.0,-100.0,-100.0,-100.0,-69.0,-100.0,-100.0,-100.0,-67.0,-100.0,-100.0,-60.0,-60.0,-89.0,-100.0,-100.0,-62.0,-100.0,-61.0,-69.0,-69.0,-75.0,-75.0,-77.0,-68.0,-76.0,-68.0,-100.0,-100.0,-79.0,-79.0,-100.0,-69.0,-69.0,-100.0,-100.0,-100.0,-100.0,-100.0,-100.0,-100.0,-100.0,-100.0,-92.0,-78.0,-78.0,-91.0,-100.0,-82.0,-82.0,-100.0,-100.0,-100.0,-92.0,-83.0,-100.0,-100.0,-100.0,-100.0,-100.0,-100.0,-100.0,-100.0,-100.0,-100.0,-100.0,-100.0,-100.0,-100.0,-100.0,-100.0,-100.0,-100.0,-100.0,-100.0,-100.0,-100.0,-100.0,-100.0,-100.0,-100.0,-100.0,-100.0,-100.0,-100.0,-100.0,-100.0,-100.0,-100.0,-100.0,-100.0,-100.0,-100.0,-100.0,-100.0,-100.0,-100.0,-100.0,-100.0,-100.0,-100.0,-100.0,-100.0,-100.0,-100.0,-100.0
2021.05.19 172413,81.0,90.0,31.616470102941175,-14.223529099264706,-32.044411249999996,-0.49415367477941174,0.7524536726470589,9.941803650735293,0.0048233559283088236,0.001725442846029412,0.003106321892794118,-0.07549045848495815,0.04968260970952752,-1.941527165034238,1003.2756460294117,-100.0,-100.0,-60.0,-41.0,-43.0,-76.0,-82.0,-100.0,-100.0,-100.0,-100.0,-100.0,-100.0,-87.0,-100.0,-100.0,-65.0,-88.0,-61.0,-73.0,-41.0,-43.0,-60.0,-76.0,-83.0,-100.0,-100.0,-100.0,-100.0,-100.0,-100.0,-100.0,-100.0,-100.0,-65.0,-88.0,-100.0,-100.0,-100.0,-100.0,-100.0,-73.0,-100.0,-100.0,-100.0,-62.0,-100.0,-100.0,-56.0,-55.0,-88.0,-100.0,-100.0,-65.0,-100.0,-65.0,-72.0,-72.0,-75.0,-74.0,-76.0,-67.0,-76.0,-67.0,-100.0,-100.0,-82.0,-81.0,-80.0,-69.0,-69.0,-100.0,-100.0,-100.0,-100.0,-100.0,-100.0,-83.0,-100.0,-100.0,-90.0,-77.0,-77.0,-100.0,-100.0,-86.0,-88.0,-91.0,-81.0,-81.0,-90.0,-82.0,-84.0,-87.0,-83.0,-86.0,-87.0,-100.0,-100.0,-100.0,-100.0,-100.0,-100.0,-100.0,-100.0,-100.0,-100.0,-100.0,-100.0,-100.0,-100.0,-100.0,-100.0,-100.0,-100.0,-100.0,-100.0,-100.0,-100.0,-100.0,-100.0,-100.0,-100.0,-100.0,-100.0,-100.0,-100.0,-100.0,-100.0,-100.0,-100.0,-100.0,-100.0,-100.0,-100.0,-100.0,-100.0,-100.0,-100.0,-100.0,-100.0,-100.0,-100.0
2021.05.19 172430,80.0,89.0,15.273777525925926,25.11955523703704,-38.70533276296297,-0.5596218323318518,0.9380946046666666,9.919498218518518,0.007823283476666665,-0.0002526494180740747,-0.006065507207540741,-0.09422702322955483,0.0563650847485944,-0.4268015265464783,1003.2765650370369,-100.0,-100.0,-59.0,-38.0,-45.0,-77.0,-84.0,-100.0,-100.0,-100.0,-100.0,-89.0,-100.0,-87.0,-100.0,-100.0,-62.0,-100.0,-59.0,-69.0,-38.0,-45.0,-65.0,-77.0,-84.0,-100.0,-100.0,-100.0,-100.0,-100.0,-100.0,-88.0,-100.0,-100.0,-61.0,-100.0,-100.0,-100.0,-100.0,-100.0,-100.0,-69.0,-100.0,-100.0,-100.0,-63.0,-100.0,-100.0,-55.0,-55.0,-100.0,-100.0,-93.0,-57.0,-100.0,-57.0,-69.0,-69.0,-73.0,-73.0,-80.0,-63.0,-79.0,-63.0,-100.0,-100.0,-82.0,-82.0,-72.0,-68.0,-68.0,-100.0,-100.0,-100.0,-100.0,-100.0,-100.0,-80.0,-100.0,-100.0,-100.0,-77.0,-78.0,-91.0,-100.0,-81.0,-81.0,-100.0,-83.0,-79.0,-100.0,-81.0,-100.0,-86.0,-100.0,-85.0,-82.0,-100.0,-100.0,-100.0,-100.0,-100.0,-100.0,-100.0,-100.0,-100.0,-100.0,-100.0,-100.0,-100.0,-100.0,-100.0,-100.0,-100.0,-100.0,-100.0,-100.0,-100.0,-100.0,-100.0,-100.0,-100.0,-100.0,-100.0,-100.0,-100.0,-100.0,-100.0,-100.0,-100.0,-100.0,-100.0,-100.0,-100.0,-100.0,-100.0,-100.0,-100.0,-100.0,-100.0,-100.0,-100.0,-100.0
2021.05.19 172442,79.0,88.0,12.90089522761194,24.58164152238806,-41.193581597014926,-0.5509154840074627,0.9024807957462686,9.917050503731343,0.004631689695149254,-0.0013713195941044776,-0.002482237265611941,-0.09062603958395875,0.055494625486238854,-0.35870195013373646,1003.2795654477611,-100.0,-100.0,-70.0,-40.0,-44.0,-78.0,-79.0,-85.0,-100.0,-100.0,-100.0,-100.0,-100.0,-85.0,-100.0,-100.0,-57.0,-100.0,-69.0,-71.0,-40.0,-45.0,-59.0,-79.0,-79.0,-87.0,-100.0,-100.0,-100.0,-100.0,-100.0,-86.0,-100.0,-100.0,-67.0,-100.0,-100.0,-100.0,-100.0,-100.0,-100.0,-71.0,-100.0,-100.0,-100.0,-58.0,-100.0,-100.0,-53.0,-53.0,-100.0,-100.0,-86.0,-60.0,-86.0,-61.0,-69.0,-69.0,-81.0,-82.0,-81.0,-69.0,-81.0,-69.0,-100.0,-100.0,-84.0,-84.0,-73.0,-64.0,-64.0,-100.0,-100.0,-100.0,-100.0,-100.0,-100.0,-100.0,-100.0,-100.0,-100.0,-82.0,-83.0,-100.0,-100.0,-100.0,-89.0,-100.0,-87.0,-84.0,-100.0,-88.0,-100.0,-100.0,-100.0,-100.0,-100.0,-100.0,-100.0,-100.0,-100.0,-100.0,-100.0,-100.0,-100.0,-100.0,-100.0,-100.0,-100.0,-100.0,-100.0,-100.0,-100.0,-100.0,-100.0,-100.0,-100.0,-100.0,-100.0,-100.0,-100.0,-100.0,-100.0,-100.0,-100.0,-100.0,-100.0,-100.0,-100.0,-100.0,-100.0,-100.0,-100.0,-100.0,-100.0,-100.0,-100.0,-100.0,-100.0,-100.0,-100.0,-100.0,-100.0
2021.05.19 172454,78.0,87.0,10.304650937984496,22.382325302325583,-42.98883679844961,-0.46855401279069764,0.9907286437209303,9.904168298449614,0.002928469252713179,0.003221442842325582,-0.002176910620124031,-0.0996726757103158,0.047219644481128455,-0.3014490217432495,1003.280597364341,-100.0,-100.0,-66.0,-41.0,-42.0,-77.0,-84.0,-100.0,-100.0,-100.0,-100.0,-87.0,-100.0,-86.0,-100.0,-87.0,-66.0,-90.0,-65.0,-68.0,-41.0,-42.0,-66.0,-77.0,-84.0,-100.0,-100.0,-100.0,-100.0,-88.0,-100.0,-85.0,-100.0,-90.0,-66.0,-100.0,-100.0,-100.0,-100.0,-89.0,-100.0,-68.0,-100.0,-100.0,-100.0,-67.0,-100.0,-100.0,-53.0,-53.0,-88.0,-100.0,-100.0,-60.0,-100.0,-59.0,-73.0,-73.0,-90.0,-77.0,-81.0,-71.0,-81.0,-71.0,-100.0,-100.0,-83.0,-83.0,-84.0,-68.0,-68.0,-100.0,-100.0,-100.0,-100.0,-100.0,-100.0,-81.0,-100.0,-100.0,-100.0,-79.0,-79.0,-92.0,-100.0,-83.0,-83.0,-100.0,-82.0,-85.0,-100.0,-82.0,-100.0,-100.0,-100.0,-100.0,-100.0,-100.0,-100.0,-100.0,-100.0,-100.0,-100.0,-100.0,-100.0,-100.0,-100.0,-100.0,-100.0,-100.0,-100.0,-100.0,-100.0,-100.0,-100.0,-100.0,-100.0,-100.0,-100.0,-100.0,-100.0,-100.0,-100.0,-100.0,-100.0,-100.0,-100.0,-100.0,-100.0,-100.0,-100.0,-100.0,-100.0,-100.0,-100.0,-100.0,-100.0,-100.0,-100.0,-100.0,-100.0,-100.0,-100.0
2021.05.19 172505,77.0,86.0,9.283511245038168,19.920457847328244,-42.02977048854961,-0.48967489026717564,0.7891420107633588,9.925840973282444,0.0002530099194656482,-0.0006516719529770991,-0.0009728563503206111,-0.07933441748600875,0.04915366312204536,-0.3007056681254438,1003.2935867175572,-100.0,-100.0,-74.0,-37.0,-39.0,-79.0,-87.0,-100.0,-100.0,-88.0,-100.0,-100.0,-100.0,-100.0,-100.0,-100.0,-70.0,-100.0,-74.0,-70.0,-37.0,-40.0,-58.0,-79.0,-87.0,-89.0,-100.0,-100.0,-100.0,-100.0,-100.0,-100.0,-100.0,-100.0,-100.0,-100.0,-100.0,-100.0,-100.0,-100.0,-100.0,-69.0,-100.0,-100.0,-100.0,-58.0,-100.0,-100.0,-55.0,-55.0,-88.0,-100.0,-86.0,-56.0,-87.0,-55.0,-70.0,-70.0,-82.0,-82.0,-79.0,-66.0,-79.0,-66.0,-100.0,-100.0,-83.0,-83.0,-86.0,-63.0,-63.0,-100.0,-100.0,-100.0,-100.0,-100.0,-100.0,-100.0,-100.0,-100.0,-100.0,-78.0,-78.0,-100.0,-100.0,-100.0,-100.0,-100.0,-83.0,-86.0,-100.0,-83.0,-100.0,-100.0,-100.0,-100.0,-100.0,-100.0,-100.0,-100.0,-100.0,-100.0,-100.0,-100.0,-100.0,-100.0,-100.0,-100.0,-100.0,-100.0,-100.0,-100.0,-100.0,-100.0,-100.0,-100.0,-100.0,-100.0,-100.0,-100.0,-100.0,-100.0,-100.0,-100.0,-100.0,-100.0,-100.0,-100.0,-100.0,-100.0,-100.0,-100.0,-100.0,-100.0,-100.0,-100.0,-100.0,-100.0,-100.0,-100.0,-100.0,-100.0,-100.0
2021.05.19 172517,76.0,85.0,12.34647856338028,18.940140591549294,-41.25760503521127,-0.47211052721830987,0.9051707654929578,9.915956584507041,0.004643246903521126,-0.0019658762697183107,-0.0020140397756338033,-0.09100101694044928,0.04748418586226962,-0.4291291033298197,1003.2938042253522,-100.0,-100.0,-75.0,-52.0,-49.0,-79.0,-86.0,-100.0,-100.0,-89.0,-100.0,-100.0,-100.0,-89.0,-100.0,-87.0,-69.0,-100.0,-75.0,-73.0,-53.0,-49.0,-100.0,-78.0,-88.0,-100.0,-100.0,-90.0,-100.0,-100.0,-100.0,-100.0,-100.0,-88.0,-69.0,-100.0,-100.0,-100.0,-100.0,-87.0,-100.0,-72.0,-100.0,-100.0,-100.0,-63.0,-100.0,-100.0,-61.0,-62.0,-100.0,-100.0,-84.0,-53.0,-84.0,-54.0,-83.0,-82.0,-79.0,-78.0,-76.0,-71.0,-76.0,-71.0,-100.0,-100.0,-83.0,-82.0,-100.0,-65.0,-64.0,-100.0,-100.0,-100.0,-100.0,-100.0,-100.0,-81.0,-100.0,-100.0,-100.0,-83.0,-83.0,-100.0,-100.0,-89.0,-91.0,-90.0,-100.0,-92.0,-100.0,-100.0,-100.0,-100.0,-100.0,-100.0,-100.0,-90.0,-100.0,-100.0,-100.0,-100.0,-100.0,-100.0,-100.0,-100.0,-100.0,-100.0,-100.0,-100.0,-100.0,-100.0,-100.0,-100.0,-100.0,-100.0,-100.0,-100.0,-100.0,-100.0,-100.0,-100.0,-100.0,-100.0,-100.0,-100.0,-100.0,-100.0,-100.0,-100.0,-100.0,-100.0,-100.0,-100.0,-100.0,-100.0,-100.0,-100.0,-100.0,-100.0,-100.0,-100.0,-100.0
2021.05.19 172529,75.0,84.0,12.277226010948905,22.821021671532847,-41.210364277372264,-0.373734064379562,0.7841861655474452,9.93398599270073,0.002558348047080293,8.080818094890522e-05,0.0011040921648029192,-0.07879609962666986,0.037643829231442716,-0.3906766576488523,1003.2963056934307,-100.0,-100.0,-71.0,-45.0,-46.0,-82.0,-87.0,-100.0,-100.0,-100.0,-100.0,-100.0,-100.0,-100.0,-100.0,-89.0,-77.0,-100.0,-72.0,-67.0,-46.0,-46.0,-56.0,-100.0,-86.0,-86.0,-100.0,-100.0,-100.0,-100.0,-100.0,-89.0,-100.0,-90.0,-77.0,-100.0,-100.0,-100.0,-100.0,-89.0,-100.0,-64.0,-100.0,-100.0,-100.0,-56.0,-100.0,-100.0,-58.0,-57.0,-88.0,-100.0,-87.0,-57.0,-87.0,-57.0,-84.0,-84.0,-79.0,-77.0,-75.0,-64.0,-75.0,-64.0,-100.0,-100.0,-80.0,-81.0,-100.0,-63.0,-63.0,-89.0,-100.0,-89.0,-100.0,-100.0,-100.0,-84.0,-100.0,-100.0,-100.0,-100.0,-100.0,-100.0,-90.0,-80.0,-91.0,-100.0,-100.0,-100.0,-100.0,-100.0,-100.0,-100.0,-100.0,-100.0,-100.0,-100.0,-100.0,-100.0,-100.0,-100.0,-100.0,-100.0,-100.0,-100.0,-100.0,-100.0,-100.0,-100.0,-100.0,-100.0,-100.0,-100.0,-100.0,-100.0,-100.0,-100.0,-100.0,-100.0,-100.0,-100.0,-100.0,-100.0,-100.0,-100.0,-100.0,-100.0,-100.0,-100.0,-100.0,-100.0,-100.0,-100.0,-100.0,-100.0,-100.0,-100.0,-100.0,-100.0,-100.0,-100.0,-100.0
2021.05.19 172542,74.0,83.0,10.738695471014491,23.108260652173914,-42.56391260144928,-0.5816526325362319,0.9312341002898551,9.91753738405797,0.0038674144307971007,-0.0022925063834057977,-0.006508556494898551,-0.09348396965019076,0.058586894696497346,-0.2954750775858976,1003.3031828260871,-100.0,-100.0,-69.0,-50.0,-50.0,-87.0,-88.0,-100.0,-100.0,-100.0,-100.0,-100.0,-100.0,-87.0,-100.0,-90.0,-78.0,-100.0,-70.0,-66.0,-51.0,-50.0,-58.0,-88.0,-88.0,-90.0,-100.0,-100.0,-100.0,-100.0,-100.0,-90.0,-100.0,-89.0,-77.0,-100.0,-100.0,-100.0,-100.0,-87.0,-100.0,-68.0,-100.0,-100.0,-100.0,-58.0,-100.0,-100.0,-53.0,-52.0,-86.0,-100.0,-88.0,-51.0,-89.0,-51.0,-87.0,-87.0,-79.0,-79.0,-77.0,-61.0,-77.0,-61.0,-100.0,-100.0,-84.0,-84.0,-88.0,-64.0,-64.0,-100.0,-100.0,-100.0,-100.0,-100.0,-100.0,-84.0,-100.0,-100.0,-100.0,-100.0,-100.0,-92.0,-100.0,-91.0,-100.0,-86.0,-100.0,-100.0,-100.0,-100.0,-100.0,-100.0,-100.0,-100.0,-100.0,-100.0,-100.0,-100.0,-100.0,-100.0,-100.0,-100.0,-100.0,-100.0,-100.0,-100.0,-100.0,-100.0,-100.0,-100.0,-100.0,-100.0,-100.0,-100.0,-100.0,-100.0,-100.0,-100.0,-100.0,-100.0,-100.0,-100.0,-100.0,-100.0,-100.0,-100.0,-100.0,-100.0,-100.0,-100.0,-100.0,-100.0,-100.0,-100.0,-100.0,-100.0,-100.0,-100.0,-100.0,-100.0,-100.0
2021.05.19 172554,73.0,82.0,10.445953969465648,22.74503793129771,-42.07007580152672,-0.5113330258778626,0.7598075741984733,9.919827778625953,0.007182366852290077,-0.005286787096106871,-0.005253576318793893,-0.07653709407184867,0.05134653689638345,-0.30910457272566,1003.3073747328243,-100.0,-100.0,-73.0,-58.0,-60.0,-84.0,-100.0,-100.0,-100.0,-100.0,-100.0,-100.0,-100.0,-100.0,-100.0,-87.0,-78.0,-100.0,-72.0,-70.0,-58.0,-60.0,-61.0,-84.0,-100.0,-100.0,-100.0,-100.0,-100.0,-100.0,-100.0,-100.0,-100.0,-86.0,-77.0,-100.0,-100.0,-100.0,-100.0,-88.0,-100.0,-71.0,-100.0,-100.0,-100.0,-62.0,-100.0,-100.0,-52.0,-50.0,-87.0,-100.0,-86.0,-57.0,-85.0,-56.0,-100.0,-100.0,-78.0,-79.0,-74.0,-64.0,-73.0,-64.0,-100.0,-100.0,-85.0,-86.0,-100.0,-66.0,-66.0,-100.0,-100.0,-100.0,-100.0,-100.0,-100.0,-77.0,-100.0,-100.0,-100.0,-100.0,-100.0,-93.0,-100.0,-100.0,-91.0,-87.0,-100.0,-100.0,-100.0,-100.0,-100.0,-100.0,-100.0,-100.0,-92.0,-89.0,-100.0,-100.0,-100.0,-100.0,-100.0,-100.0,-100.0,-100.0,-100.0,-100.0,-100.0,-100.0,-100.0,-100.0,-100.0,-100.0,-100.0,-100.0,-100.0,-100.0,-100.0,-100.0,-100.0,-100.0,-100.0,-100.0,-100.0,-100.0,-100.0,-100.0,-100.0,-100.0,-100.0,-100.0,-100.0,-100.0,-100.0,-100.0,-100.0,-100.0,-100.0,-100.0,-100.0,-100.0,-100.0
2021.05.19 172606,72.0,81.0,12.004090571969696,23.989545128787878,-42.01181778787879,-0.609361076439394,1.006865114090909,9.91064706060606,0.004758158867803029,-0.004219468244545455,-0.0061715344428181825,-0.10108003725833963,0.061386778696694115,-0.3221939675735705,1003.2832681818181,-100.0,-100.0,-78.0,-52.0,-59.0,-86.0,-100.0,-100.0,-100.0,-100.0,-100.0,-100.0,-100.0,-100.0,-100.0,-89.0,-83.0,-100.0,-78.0,-68.0,-52.0,-59.0,-52.0,-85.0,-100.0,-100.0,-100.0,-100.0,-100.0,-100.0,-100.0,-100.0,-100.0,-89.0,-85.0,-100.0,-100.0,-100.0,-100.0,-100.0,-100.0,-81.0,-100.0,-100.0,-100.0,-52.0,-100.0,-100.0,-58.0,-57.0,-100.0,-100.0,-77.0,-53.0,-81.0,-53.0,-100.0,-100.0,-78.0,-78.0,-75.0,-74.0,-75.0,-73.0,-100.0,-100.0,-100.0,-100.0,-100.0,-64.0,-64.0,-100.0,-100.0,-100.0,-100.0,-100.0,-100.0,-74.0,-100.0,-100.0,-100.0,-100.0,-100.0,-87.0,-100.0,-100.0,-100.0,-87.0,-100.0,-100.0,-100.0,-100.0,-100.0,-100.0,-100.0,-100.0,-100.0,-100.0,-91.0,-100.0,-100.0,-100.0,-100.0,-100.0,-100.0,-100.0,-100.0,-100.0,-100.0,-100.0,-100.0,-100.0,-100.0,-100.0,-100.0,-100.0,-100.0,-100.0,-100.0,-100.0,-100.0,-100.0,-100.0,-100.0,-100.0,-100.0,-100.0,-100.0,-100.0,-100.0,-100.0,-100.0,-100.0,-100.0,-100.0,-100.0,-100.0,-100.0,-100.0,-100.0,-100.0,-100.0,-100.0
2021.05.19 172619,71.0,80.0,12.534084253521128,27.338027823943662,-41.2538023028169,-0.6154972360563381,0.8381142101408451,9.914911147887324,0.000805980385915494,-0.0027359106047887315,-0.0036100329449154926,-0.08425973203610361,0.06191880189039752,-0.3130595457385963,1003.2398464788732,-100.0,-100.0,-82.0,-48.0,-61.0,-88.0,-100.0,-100.0,-100.0,-100.0,-100.0,-100.0,-100.0,-100.0,-100.0,-86.0,-100.0,-100.0,-80.0,-80.0,-57.0,-61.0,-56.0,-90.0,-100.0,-100.0,-100.0,-100.0,-100.0,-100.0,-100.0,-100.0,-100.0,-100.0,-100.0,-100.0,-100.0,-100.0,-100.0,-90.0,-100.0,-79.0,-100.0,-100.0,-100.0,-55.0,-100.0,-100.0,-50.0,-50.0,-91.0,-100.0,-85.0,-56.0,-85.0,-57.0,-100.0,-100.0,-100.0,-87.0,-68.0,-65.0,-68.0,-65.0,-100.0,-100.0,-100.0,-100.0,-100.0,-74.0,-74.0,-100.0,-100.0,-100.0,-100.0,-100.0,-100.0,-78.0,-79.0,-100.0,-100.0,-100.0,-100.0,-85.0,-100.0,-100.0,-100.0,-87.0,-100.0,-100.0,-100.0,-100.0,-100.0,-100.0,-100.0,-100.0,-100.0,-88.0,-100.0,-100.0,-100.0,-100.0,-100.0,-100.0,-100.0,-100.0,-100.0,-100.0,-100.0,-100.0,-100.0,-100.0,-100.0,-100.0,-100.0,-100.0,-100.0,-100.0,-100.0,-100.0,-100.0,-100.0,-100.0,-100.0,-100.0,-100.0,-100.0,-100.0,-100.0,-100.0,-100.0,-100.0,-100.0,-100.0,-100.0,-100.0,-100.0,-100.0,-100.0,-100.0,-100.0,-100.0,-100.0
2021.05.19 172642,70.0,79.0,10.660888670370369,27.044888555555552,-40.873777170370374,-0.6370544524814815,1.1017565905185187,9.875230803703701,0.006963546934814815,-0.003795667820518519,0.0045725977259259264,-0.11112815152715748,0.06420801555806838,-0.24968001952877752,1003.2055030370368,-100.0,-100.0,-86.0,-61.0,-62.0,-87.0,-100.0,-100.0,-100.0,-100.0,-100.0,-100.0,-100.0,-100.0,-100.0,-90.0,-84.0,-100.0,-82.0,-79.0,-61.0,-62.0,-56.0,-88.0,-100.0,-100.0,-100.0,-100.0,-100.0,-100.0,-100.0,-100.0,-100.0,-89.0,-84.0,-100.0,-100.0,-100.0,-100.0,-100.0,-100.0,-81.0,-100.0,-100.0,-100.0,-54.0,-100.0,-100.0,-54.0,-53.0,-88.0,-100.0,-82.0,-60.0,-83.0,-61.0,-100.0,-100.0,-83.0,-83.0,-63.0,-72.0,-63.0,-72.0,-100.0,-100.0,-88.0,-87.0,-100.0,-72.0,-72.0,-100.0,-100.0,-100.0,-100.0,-100.0,-100.0,-70.0,-71.0,-100.0,-100.0,-100.0,-100.0,-79.0,-100.0,-100.0,-100.0,-83.0,-100.0,-100.0,-100.0,-100.0,-100.0,-100.0,-100.0,-100.0,-100.0,-84.0,-100.0,-93.0,-95.0,-87.0,-90.0,-100.0,-100.0,-100.0,-100.0,-100.0,-100.0,-100.0,-100.0,-100.0,-100.0,-100.0,-100.0,-100.0,-100.0,-100.0,-100.0,-100.0,-100.0,-100.0,-100.0,-100.0,-100.0,-100.0,-100.0,-100.0,-100.0,-100.0,-100.0,-100.0,-100.0,-100.0,-100.0,-100.0,-100.0,-100.0,-100.0,-100.0,-100.0,-100.0,-100.0
2021.05.19 172654,69.0,78.0,10.04976726124031,24.730232302325582,-38.03023220155039,-0.6372483044186047,0.9602155603875968,9.89455407364341,0.003307300007751937,0.001810296582170542,-0.0045446051513643405,-0.0966809643504693,0.06417560492201825,-0.2617885707191719,1003.2102877519379,-100.0,-100.0,-86.0,-59.0,-62.0,-100.0,-100.0,-100.0,-100.0,-100.0,-100.0,-100.0,-100.0,-100.0,-100.0,-87.0,-100.0,-100.0,-100.0,-80.0,-59.0,-62.0,-58.0,-100.0,-100.0,-100.0,-100.0,-100.0,-100.0,-100.0,-100.0,-100.0,-100.0,-85.0,-83.0,-100.0,-100.0,-100.0,-100.0,-100.0,-100.0,-80.0,-100.0,-100.0,-100.0,-57.0,-100.0,-100.0,-53.0,-53.0,-100.0,-100.0,-81.0,-59.0,-81.0,-60.0,-100.0,-100.0,-100.0,-100.0,-75.0,-69.0,-75.0,-69.0,-100.0,-100.0,-87.0,-86.0,-100.0,-72.0,-72.0,-100.0,-100.0,-100.0,-100.0,-100.0,-100.0,-76.0,-75.0,-100.0,-100.0,-100.0,-100.0,-80.0,-100.0,-100.0,-100.0,-100.0,-100.0,-100.0,-100.0,-100.0,-100.0,-100.0,-100.0,-100.0,-100.0,-100.0,-87.0,-100.0,-100.0,-100.0,-86.0,-90.0,-86.0,-100.0,-100.0,-100.0,-100.0,-100.0,-100.0,-100.0,-100.0,-100.0,-100.0,-100.0,-100.0,-100.0,-100.0,-100.0,-100.0,-100.0,-100.0,-100.0,-100.0,-100.0,-100.0,-100.0,-100.0,-100.0,-100.0,-100.0,-100.0,-100.0,-100.0,-100.0,-100.0,-100.0,-100.0,-100.0,-100.0,-100.0,-100.0
2021.05.19 172705,68.0,77.0,9.143478088405796,21.571304108695653,-37.11434733333333,-0.7406116580434783,0.7955238305797102,9.920677663043477,0.004827978089492752,-0.002894518485289855,-0.007690448093666666,-0.07981790891052151,0.07448484940265396,-0.25418078748212347,1003.212288695652,-100.0,-100.0,-90.0,-66.0,-68.0,-100.0,-100.0,-100.0,-100.0,-100.0,-100.0,-100.0,-100.0,-100.0,-100.0,-88.0,-87.0,-100.0,-84.0,-83.0,-65.0,-68.0,-61.0,-100.0,-100.0,-100.0,-100.0,-100.0,-100.0,-100.0,-100.0,-100.0,-100.0,-87.0,-87.0,-100.0,-100.0,-100.0,-100.0,-100.0,-100.0,-83.0,-100.0,-100.0,-100.0,-62.0,-100.0,-100.0,-50.0,-49.0,-100.0,-100.0,-79.0,-59.0,-77.0,-59.0,-100.0,-100.0,-81.0,-100.0,-79.0,-63.0,-79.0,-63.0,-100.0,-100.0,-100.0,-100.0,-100.0,-67.0,-67.0,-100.0,-100.0,-100.0,-100.0,-100.0,-100.0,-71.0,-100.0,-100.0,-100.0,-100.0,-100.0,-86.0,-100.0,-100.0,-100.0,-85.0,-100.0,-100.0,-100.0,-100.0,-100.0,-100.0,-100.0,-100.0,-100.0,-100.0,-84.0,-100.0,-100.0,-86.0,-88.0,-100.0,-100.0,-86.0,-100.0,-100.0,-100.0,-100.0,-100.0,-100.0,-100.0,-100.0,-100.0,-100.0,-100.0,-100.0,-100.0,-100.0,-100.0,-100.0,-100.0,-100.0,-100.0,-100.0,-100.0,-100.0,-100.0,-100.0,-100.0,-100.0,-100.0,-100.0,-100.0,-100.0,-100.0,-100.0,-100.0,-100.0,-100.0,-100.0,-100.0
2021.05.19 172718,67.0,76.0,10.298980649681528,24.624458369426748,-39.26407571974522,-0.7322668368789809,0.8746118134394905,9.915530751592359,0.0074631624945859865,-0.0035574029913375796,-0.0028464102158726116,-0.08776181442722389,0.07373656670616306,-0.25762308279799806,1003.2135657961784,-100.0,-100.0,-83.0,-70.0,-66.0,-100.0,-100.0,-100.0,-100.0,-100.0,-100.0,-100.0,-100.0,-100.0,-100.0,-82.0,-100.0,-100.0,-83.0,-81.0,-71.0,-67.0,-63.0,-100.0,-100.0,-100.0,-100.0,-100.0,-100.0,-100.0,-100.0,-100.0,-100.0,-100.0,-100.0,-100.0,-100.0,-100.0,-100.0,-100.0,-100.0,-81.0,-100.0,-100.0,-100.0,-61.0,-100.0,-100.0,-50.0,-50.0,-100.0,-100.0,-71.0,-66.0,-71.0,-65.0,-100.0,-100.0,-100.0,-100.0,-79.0,-68.0,-79.0,-68.0,-100.0,-100.0,-100.0,-100.0,-100.0,-68.0,-68.0,-100.0,-100.0,-100.0,-100.0,-100.0,-100.0,-73.0,-73.0,-100.0,-100.0,-100.0,-100.0,-87.0,-100.0,-100.0,-100.0,-80.0,-100.0,-100.0,-100.0,-100.0,-100.0,-100.0,-100.0,-100.0,-100.0,-82.0,-86.0,-100.0,-100.0,-87.0,-87.0,-89.0,-82.0,-82.0,-91.0,-89.0,-82.0,-100.0,-100.0,-100.0,-100.0,-100.0,-100.0,-100.0,-100.0,-100.0,-100.0,-100.0,-100.0,-100.0,-100.0,-100.0,-100.0,-100.0,-100.0,-100.0,-100.0,-100.0,-100.0,-100.0,-100.0,-100.0,-100.0,-100.0,-100.0,-100.0,-100.0,-100.0,-100.0,-100.0,-100.0
2021.05.19 172731,66.0,75.0,8.94264685882353,25.49161734558824,-39.39220519852941,-0.6406621626470589,0.7975047734558823,9.914744805147059,0.005533037886029412,-0.0010728589081617649,0.0009413433991029412,-0.08012115111684093,0.06453108680708439,-0.21979565381565513,1003.2150180882354,-100.0,-100.0,-100.0,-66.0,-71.0,-100.0,-100.0,-100.0,-100.0,-100.0,-100.0,-100.0,-100.0,-100.0,-100.0,-84.0,-100.0,-100.0,-100.0,-82.0,-65.0,-72.0,-61.0,-100.0,-100.0,-100.0,-100.0,-100.0,-100.0,-100.0,-100.0,-100.0,-100.0,-84.0,-100.0,-100.0,-100.0,-100.0,-100.0,-100.0,-100.0,-83.0,-100.0,-100.0,-100.0,-61.0,-100.0,-100.0,-64.0,-64.0,-100.0,-100.0,-76.0,-60.0,-76.0,-60.0,-100.0,-100.0,-100.0,-100.0,-82.0,-76.0,-83.0,-76.0,-100.0,-100.0,-100.0,-100.0,-100.0,-71.0,-71.0,-100.0,-100.0,-100.0,-100.0,-100.0,-100.0,-70.0,-70.0,-100.0,-100.0,-100.0,-100.0,-87.0,-100.0,-100.0,-100.0,-83.0,-100.0,-100.0,-100.0,-100.0,-100.0,-100.0,-100.0,-100.0,-100.0,-84.0,-86.0,-100.0,-100.0,-85.0,-85.0,-100.0,-87.0,-78.0,-100.0,-100.0,-79.0,-91.0,-100.0,-100.0,-100.0,-100.0,-100.0,-100.0,-100.0,-100.0,-100.0,-100.0,-100.0,-100.0,-100.0,-100.0,-100.0,-100.0,-100.0,-100.0,-100.0,-100.0,-100.0,-100.0,-100.0,-100.0,-100.0,-100.0,-100.0,-100.0,-100.0,-100.0,-100.0,-100.0,-100.0
2021.05.19 172742,65.0,74.0,11.119852643382353,24.621617419117648,-40.141764095588236,-0.6361729016911765,0.6321765721323529,9.943775349264707,0.003332125910294119,-0.00026885255889705893,-0.00019055388210294152,-0.06340168113820249,0.06387683430083968,-0.3044868802980465,1003.2171219852942,-100.0,-100.0,-100.0,-68.0,-69.0,-100.0,-100.0,-100.0,-100.0,-100.0,-100.0,-100.0,-100.0,-100.0,-100.0,-77.0,-100.0,-100.0,-100.0,-83.0,-69.0,-69.0,-68.0,-100.0,-100.0,-100.0,-100.0,-100.0,-100.0,-100.0,-100.0,-100.0,-100.0,-77.0,-100.0,-100.0,-100.0,-100.0,-100.0,-100.0,-100.0,-82.0,-100.0,-100.0,-100.0,-67.0,-100.0,-100.0,-64.0,-64.0,-100.0,-100.0,-71.0,-64.0,-71.0,-63.0,-100.0,-100.0,-100.0,-91.0,-84.0,-80.0,-84.0,-80.0,-100.0,-100.0,-100.0,-100.0,-100.0,-77.0,-77.0,-100.0,-100.0,-100.0,-100.0,-100.0,-100.0,-73.0,-75.0,-100.0,-100.0,-100.0,-100.0,-79.0,-100.0,-100.0,-100.0,-80.0,-100.0,-100.0,-100.0,-100.0,-100.0,-100.0,-100.0,-100.0,-100.0,-80.0,-85.0,-100.0,-100.0,-85.0,-85.0,-100.0,-100.0,-75.0,-100.0,-100.0,-75.0,-100.0,-91.0,-90.0,-100.0,-100.0,-100.0,-100.0,-100.0,-100.0,-100.0,-100.0,-100.0,-100.0,-100.0,-100.0,-100.0,-100.0,-100.0,-100.0,-100.0,-100.0,-100.0,-100.0,-100.0,-100.0,-100.0,-100.0,-100.0,-100.0,-100.0,-100.0,-100.0,-100.0,-100.0
2021.05.19 172754,64.0,73.0,12.267999718518519,24.699110799999996,-38.68888841481481,-0.6857912450518517,0.32086829593629634,9.942039914814814,0.006891148017777777,-0.002388415458888889,-0.0012464590989037037,-0.032332181683051596,0.06883265485780103,-0.35363639350290654,1003.2167093333334,-100.0,-100.0,-89.0,-67.0,-74.0,-100.0,-100.0,-100.0,-100.0,-100.0,-100.0,-100.0,-100.0,-100.0,-100.0,-75.0,-100.0,-100.0,-90.0,-80.0,-67.0,-74.0,-60.0,-100.0,-100.0,-100.0,-100.0,-100.0,-100.0,-100.0,-100.0,-100.0,-100.0,-76.0,-100.0,-100.0,-100.0,-100.0,-100.0,-100.0,-100.0,-85.0,-100.0,-100.0,-100.0,-61.0,-100.0,-100.0,-72.0,-72.0,-100.0,-100.0,-71.0,-68.0,-71.0,-68.0,-100.0,-100.0,-100.0,-100.0,-85.0,-82.0,-85.0,-82.0,-100.0,-100.0,-100.0,-100.0,-100.0,-82.0,-82.0,-100.0,-100.0,-100.0,-100.0,-100.0,-100.0,-71.0,-71.0,-100.0,-100.0,-100.0,-100.0,-76.0,-100.0,-100.0,-100.0,-82.0,-100.0,-100.0,-100.0,-100.0,-100.0,-100.0,-100.0,-100.0,-100.0,-83.0,-80.0,-100.0,-100.0,-84.0,-84.0,-87.0,-81.0,-76.0,-100.0,-86.0,-76.0,-100.0,-92.0,-100.0,-100.0,-100.0,-100.0,-100.0,-100.0,-100.0,-100.0,-100.0,-100.0,-100.0,-100.0,-100.0,-100.0,-100.0,-100.0,-100.0,-100.0,-100.0,-100.0,-100.0,-100.0,-100.0,-100.0,-100.0,-100.0,-100.0,-100.0,-100.0,-100.0,-100.0,-100.0
2021.05.19 172805,63.0,72.0,12.719999737410072,24.37294945323741,-37.82633049640288,-0.7690272853956833,0.48490093756834535,9.927111197841729,0.00475333134028777,-0.00540074747057554,-0.0002650059194964031,-0.04876105188519402,0.07718259792962515,-0.3564455487745271,1003.2157378417269,-100.0,-100.0,-100.0,-72.0,-71.0,-100.0,-100.0,-100.0,-100.0,-100.0,-100.0,-100.0,-100.0,-100.0,-100.0,-80.0,-100.0,-100.0,-100.0,-89.0,-72.0,-72.0,-63.0,-100.0,-100.0,-100.0,-100.0,-100.0,-100.0,-100.0,-100.0,-100.0,-100.0,-80.0,-89.0,-100.0,-100.0,-100.0,-100.0,-100.0,-100.0,-100.0,-100.0,-100.0,-100.0,-63.0,-100.0,-100.0,-66.0,-65.0,-100.0,-100.0,-63.0,-70.0,-64.0,-70.0,-100.0,-100.0,-100.0,-100.0,-80.0,-77.0,-79.0,-77.0,-100.0,-100.0,-100.0,-100.0,-100.0,-79.0,-79.0,-100.0,-100.0,-100.0,-100.0,-100.0,-100.0,-69.0,-69.0,-100.0,-100.0,-100.0,-100.0,-86.0,-100.0,-100.0,-100.0,-71.0,-100.0,-100.0,-100.0,-100.0,-100.0,-100.0,-100.0,-100.0,-100.0,-80.0,-88.0,-100.0,-100.0,-83.0,-84.0,-80.0,-89.0,-73.0,-90.0,-81.0,-73.0,-88.0,-89.0,-88.0,-100.0,-100.0,-100.0,-100.0,-100.0,-100.0,-100.0,-100.0,-100.0,-100.0,-100.0,-100.0,-100.0,-100.0,-100.0,-100.0,-100.0,-100.0,-100.0,-100.0,-100.0,-100.0,-100.0,-100.0,-100.0,-100.0,-100.0,-100.0,-100.0,-100.0,-100.0
2021.05.19 172817,62.0,71.0,6.4534284728571425,23.187428314285718,-35.56714244285714,-0.6286681555,0.5203101190428572,9.946501617857143,0.005757492223214287,-0.0015138114626428573,-0.0006076363722714284,-0.05212641181424256,0.06311067034091263,-0.16696963134620868,1003.2152389285716,-100.0,-100.0,-100.0,-67.0,-65.0,-100.0,-100.0,-100.0,-100.0,-100.0,-100.0,-100.0,-100.0,-100.0,-100.0,-84.0,-90.0,-100.0,-100.0,-91.0,-67.0,-66.0,-70.0,-100.0,-100.0,-100.0,-100.0,-100.0,-100.0,-100.0,-100.0,-100.0,-100.0,-84.0,-87.0,-100.0,-100.0,-100.0,-100.0,-100.0,-100.0,-92.0,-100.0,-100.0,-100.0,-69.0,-100.0,-100.0,-100.0,-66.0,-100.0,-100.0,-68.0,-68.0,-67.0,-69.0,-100.0,-100.0,-100.0,-100.0,-84.0,-79.0,-83.0,-79.0,-100.0,-100.0,-100.0,-100.0,-100.0,-85.0,-86.0,-100.0,-100.0,-100.0,-100.0,-100.0,-100.0,-62.0,-62.0,-100.0,-100.0,-100.0,-100.0,-75.0,-100.0,-100.0,-100.0,-74.0,-100.0,-100.0,-100.0,-100.0,-100.0,-100.0,-100.0,-100.0,-100.0,-79.0,-85.0,-100.0,-100.0,-81.0,-81.0,-82.0,-84.0,-69.0,-85.0,-82.0,-69.0,-85.0,-100.0,-100.0,-88.0,-100.0,-100.0,-100.0,-100.0,-100.0,-100.0,-100.0,-100.0,-100.0,-100.0,-100.0,-100.0,-100.0,-100.0,-100.0,-100.0,-100.0,-100.0,-100.0,-100.0,-100.0,-100.0,-100.0,-100.0,-100.0,-100.0,-100.0,-100.0,-100.0,-100.0
2021.05.19 172829,61.0,70.0,7.017793948529412,22.368970286764707,-37.68441125735294,-0.5452432746323529,0.7491615448529413,9.910026577941176,0.000677557259926471,-0.003359111985588235,-0.003671587642426471,-0.07547116813742934,0.05462457832661178,-0.1942168312585529,1003.2081632352941,-100.0,-100.0,-90.0,-60.0,-69.0,-100.0,-100.0,-100.0,-100.0,-100.0,-100.0,-100.0,-100.0,-100.0,-100.0,-79.0,-100.0,-100.0,-92.0,-92.0,-73.0,-69.0,-69.0,-100.0,-100.0,-100.0,-100.0,-100.0,-100.0,-100.0,-100.0,-100.0,-100.0,-78.0,-100.0,-100.0,-100.0,-100.0,-100.0,-100.0,-100.0,-92.0,-100.0,-100.0,-100.0,-69.0,-100.0,-100.0,-65.0,-65.0,-100.0,-100.0,-61.0,-76.0,-61.0,-76.0,-100.0,-100.0,-100.0,-100.0,-80.0,-82.0,-80.0,-83.0,-100.0,-100.0,-100.0,-100.0,-100.0,-83.0,-84.0,-100.0,-100.0,-100.0,-100.0,-100.0,-100.0,-58.0,-58.0,-100.0,-100.0,-100.0,-100.0,-74.0,-100.0,-100.0,-100.0,-80.0,-100.0,-100.0,-100.0,-100.0,-100.0,-100.0,-100.0,-100.0,-100.0,-81.0,-86.0,-100.0,-100.0,-82.0,-82.0,-79.0,-88.0,-73.0,-90.0,-79.0,-73.0,-89.0,-100.0,-100.0,-100.0,-100.0,-100.0,-100.0,-100.0,-100.0,-100.0,-100.0,-100.0,-100.0,-100.0,-100.0,-100.0,-100.0,-100.0,-100.0,-100.0,-100.0,-100.0,-100.0,-100.0,-100.0,-100.0,-100.0,-100.0,-100.0,-100.0,-100.0,-100.0,-100.0,-100.0
2021.05.19 172840,60.0,69.0,7.9209598864,23.993279743999995,-36.61919948800001,-0.5325058726240002,0.4418682056,9.951582983999998,0.005696929360800002,-0.0002131919512,-0.001568091166016,-0.044346806522458745,0.05345152781903739,-0.22895239782333374,1003.2099491999999,-100.0,-100.0,-90.0,-68.0,-72.0,-100.0,-100.0,-100.0,-100.0,-100.0,-100.0,-100.0,-100.0,-100.0,-100.0,-75.0,-100.0,-100.0,-100.0,-91.0,-67.0,-72.0,-63.0,-100.0,-100.0,-100.0,-100.0,-100.0,-100.0,-100.0,-100.0,-100.0,-100.0,-74.0,-100.0,-100.0,-100.0,-100.0,-100.0,-100.0,-100.0,-91.0,-100.0,-100.0,-100.0,-64.0,-100.0,-100.0,-66.0,-66.0,-100.0,-100.0,-67.0,-74.0,-67.0,-74.0,-100.0,-100.0,-100.0,-100.0,-84.0,-82.0,-83.0,-82.0,-100.0,-100.0,-100.0,-100.0,-100.0,-85.0,-85.0,-100.0,-100.0,-100.0,-100.0,-100.0,-100.0,-63.0,-63.0,-100.0,-100.0,-100.0,-100.0,-79.0,-100.0,-100.0,-100.0,-75.0,-100.0,-100.0,-100.0,-100.0,-100.0,-100.0,-100.0,-100.0,-100.0,-74.0,-83.0,-100.0,-100.0,-80.0,-82.0,-100.0,-82.0,-64.0,-85.0,-100.0,-65.0,-85.0,-100.0,-100.0,-100.0,-100.0,-100.0,-100.0,-100.0,-100.0,-100.0,-100.0,-100.0,-100.0,-100.0,-100.0,-100.0,-100.0,-100.0,-100.0,-100.0,-100.0,-100.0,-100.0,-100.0,-100.0,-100.0,-100.0,-100.0,-100.0,-100.0,-100.0,-100.0,-100.0,-100.0
2021.05.19 172851,59.0,68.0,8.37869545,23.334347601449274,-35.467390971014495,-0.4866970788768117,0.5370635967391304,9.928311536231885,0.003504436428623188,-0.0029476372585507246,-0.0028477917811304348,-0.05410036975112942,0.04869390164326494,-0.2573554242650668,1003.2045916666667,-100.0,-100.0,-100.0,-70.0,-74.0,-100.0,-100.0,-100.0,-100.0,-100.0,-100.0,-100.0,-100.0,-100.0,-100.0,-79.0,-100.0,-100.0,-93.0,-100.0,-70.0,-74.0,-70.0,-100.0,-100.0,-100.0,-100.0,-100.0,-100.0,-100.0,-100.0,-100.0,-100.0,-78.0,-100.0,-100.0,-100.0,-100.0,-100.0,-100.0,-100.0,-100.0,-100.0,-100.0,-100.0,-70.0,-100.0,-100.0,-68.0,-68.0,-100.0,-100.0,-60.0,-73.0,-60.0,-73.0,-100.0,-100.0,-100.0,-100.0,-86.0,-83.0,-85.0,-84.0,-100.0,-100.0,-100.0,-100.0,-100.0,-86.0,-86.0,-100.0,-100.0,-100.0,-100.0,-100.0,-100.0,-62.0,-62.0,-100.0,-100.0,-100.0,-100.0,-100.0,-100.0,-100.0,-100.0,-70.0,-100.0,-100.0,-100.0,-100.0,-100.0,-100.0,-100.0,-100.0,-100.0,-72.0,-83.0,-100.0,-100.0,-79.0,-79.0,-100.0,-83.0,-68.0,-84.0,-100.0,-68.0,-83.0,-100.0,-87.0,-100.0,-88.0,-90.0,-100.0,-100.0,-100.0,-100.0,-100.0,-100.0,-100.0,-100.0,-100.0,-100.0,-100.0,-100.0,-100.0,-100.0,-100.0,-100.0,-100.0,-100.0,-100.0,-100.0,-100.0,-100.0,-100.0,-100.0,-100.0,-100.0,-100.0,-100.0
2021.05.19 172903,58.0,67.0,10.890869373188407,23.743912702898548,-36.02260831884059,-0.6050575308695653,0.6579050788405798,9.938461213768115,0.00890926587862319,0.0003944154629710142,0.0026854080667536233,-0.06602541077882046,0.06080302424674876,-0.32102588942085486,1003.2054101449274,-100.0,-100.0,-100.0,-74.0,-77.0,-100.0,-100.0,-100.0,-100.0,-100.0,-100.0,-100.0,-100.0,-100.0,-100.0,-77.0,-100.0,-100.0,-100.0,-100.0,-73.0,-76.0,-75.0,-100.0,-100.0,-100.0,-100.0,-100.0,-100.0,-100.0,-100.0,-100.0,-100.0,-77.0,-100.0,-100.0,-100.0,-100.0,-100.0,-100.0,-100.0,-100.0,-100.0,-100.0,-100.0,-75.0,-100.0,-100.0,-63.0,-63.0,-100.0,-100.0,-61.0,-77.0,-61.0,-78.0,-100.0,-100.0,-100.0,-100.0,-86.0,-80.0,-86.0,-80.0,-100.0,-100.0,-100.0,-100.0,-100.0,-86.0,-86.0,-100.0,-100.0,-100.0,-100.0,-100.0,-100.0,-57.0,-58.0,-100.0,-100.0,-100.0,-100.0,-85.0,-100.0,-100.0,-100.0,-70.0,-100.0,-100.0,-100.0,-100.0,-100.0,-100.0,-100.0,-100.0,-100.0,-66.0,-83.0,-100.0,-100.0,-75.0,-76.0,-81.0,-82.0,-67.0,-87.0,-81.0,-67.0,-89.0,-100.0,-100.0,-82.0,-85.0,-85.0,-83.0,-100.0,-100.0,-100.0,-100.0,-100.0,-100.0,-100.0,-100.0,-100.0,-100.0,-100.0,-100.0,-100.0,-100.0,-100.0,-100.0,-100.0,-100.0,-100.0,-100.0,-100.0,-100.0,-100.0,-100.0,-100.0,-100.0,-100.0
2021.05.19 172915,57.0,66.0,10.69984596923077,24.42323046153846,-37.79861486153846,-0.5342916316615384,0.8474996157692307,9.916073253846154,0.004244761635384615,0.0005134559317692305,-0.0034051979601692306,-0.0852000239376838,0.05380595670207041,-0.30374498126598504,1003.1929952307693,-100.0,-100.0,-100.0,-70.0,-82.0,-100.0,-100.0,-100.0,-100.0,-100.0,-100.0,-100.0,-100.0,-100.0,-100.0,-79.0,-100.0,-100.0,-100.0,-93.0,-70.0,-81.0,-75.0,-100.0,-100.0,-100.0,-100.0,-100.0,-100.0,-100.0,-100.0,-100.0,-100.0,-80.0,-100.0,-100.0,-100.0,-100.0,-100.0,-100.0,-100.0,-92.0,-100.0,-100.0,-100.0,-76.0,-100.0,-100.0,-64.0,-65.0,-100.0,-100.0,-57.0,-78.0,-57.0,-78.0,-100.0,-100.0,-100.0,-100.0,-88.0,-83.0,-88.0,-83.0,-100.0,-100.0,-100.0,-100.0,-100.0,-100.0,-100.0,-100.0,-100.0,-100.0,-100.0,-100.0,-100.0,-55.0,-56.0,-100.0,-100.0,-100.0,-100.0,-85.0,-100.0,-100.0,-100.0,-73.0,-100.0,-100.0,-100.0,-100.0,-100.0,-100.0,-100.0,-100.0,-100.0,-73.0,-79.0,-100.0,-100.0,-72.0,-72.0,-100.0,-80.0,-68.0,-87.0,-84.0,-68.0,-87.0,-82.0,-82.0,-89.0,-89.0,-87.0,-86.0,-91.0,-89.0,-89.0,-88.0,-100.0,-100.0,-100.0,-100.0,-100.0,-100.0,-100.0,-100.0,-100.0,-100.0,-100.0,-100.0,-100.0,-100.0,-100.0,-100.0,-100.0,-100.0,-100.0,-100.0,-100.0,-100.0,-100.0
2021.05.19 172926,56.0,65.0,7.9623527955882345,25.185881985294117,-36.66749950735294,-0.5175858804411765,0.6801853066176471,9.933441246323529,0.007590216137132352,-0.0012929501461029411,-0.0013538928916617644,-0.06828418143970119,0.05196082720752144,-0.21577248590833997,1003.1896191911765,-100.0,-100.0,-100.0,-74.0,-81.0,-100.0,-100.0,-100.0,-100.0,-100.0,-100.0,-100.0,-100.0,-100.0,-100.0,-77.0,-100.0,-100.0,-100.0,-100.0,-74.0,-81.0,-75.0,-100.0,-100.0,-100.0,-100.0,-100.0,-100.0,-100.0,-100.0,-100.0,-100.0,-77.0,-100.0,-100.0,-100.0,-100.0,-100.0,-100.0,-100.0,-100.0,-100.0,-100.0,-100.0,-74.0,-100.0,-100.0,-73.0,-73.0,-100.0,-100.0,-58.0,-83.0,-58.0,-82.0,-100.0,-100.0,-100.0,-100.0,-87.0,-83.0,-87.0,-82.0,-100.0,-100.0,-100.0,-100.0,-100.0,-100.0,-100.0,-100.0,-100.0,-100.0,-100.0,-100.0,-100.0,-56.0,-57.0,-100.0,-100.0,-100.0,-100.0,-82.0,-100.0,-100.0,-100.0,-67.0,-100.0,-100.0,-100.0,-100.0,-100.0,-100.0,-100.0,-100.0,-100.0,-67.0,-80.0,-100.0,-100.0,-70.0,-70.0,-83.0,-81.0,-67.0,-100.0,-83.0,-67.0,-100.0,-100.0,-100.0,-100.0,-100.0,-100.0,-100.0,-90.0,-100.0,-88.0,-100.0,-93.0,-86.0,-86.0,-100.0,-100.0,-100.0,-100.0,-100.0,-100.0,-100.0,-100.0,-100.0,-100.0,-100.0,-100.0,-100.0,-100.0,-100.0,-100.0,-100.0,-100.0,-100.0,-100.0
2021.05.19 172937,55.0,64.0,7.772857024603175,24.11142830952381,-35.524761444444444,-0.49266954781746036,0.7759350607936509,9.922007773809524,0.0036926706865079355,0.0007774180769841271,-0.0006779343045238094,-0.07801032563050585,0.04957544169987414,-0.22046930141865262,1003.185917063492,-100.0,-100.0,-100.0,-71.0,-81.0,-100.0,-100.0,-100.0,-100.0,-100.0,-100.0,-100.0,-100.0,-100.0,-100.0,-75.0,-100.0,-100.0,-100.0,-100.0,-71.0,-80.0,-75.0,-100.0,-100.0,-100.0,-100.0,-100.0,-100.0,-100.0,-100.0,-100.0,-100.0,-75.0,-100.0,-100.0,-100.0,-100.0,-100.0,-100.0,-100.0,-100.0,-100.0,-100.0,-100.0,-76.0,-100.0,-100.0,-66.0,-66.0,-100.0,-100.0,-65.0,-80.0,-65.0,-81.0,-100.0,-100.0,-100.0,-100.0,-88.0,-83.0,-88.0,-83.0,-100.0,-100.0,-100.0,-100.0,-100.0,-88.0,-100.0,-100.0,-100.0,-100.0,-100.0,-100.0,-100.0,-65.0,-64.0,-100.0,-100.0,-100.0,-100.0,-87.0,-100.0,-100.0,-100.0,-75.0,-100.0,-100.0,-100.0,-100.0,-100.0,-100.0,-100.0,-100.0,-100.0,-75.0,-82.0,-100.0,-100.0,-71.0,-71.0,-86.0,-82.0,-81.0,-100.0,-86.0,-81.0,-100.0,-100.0,-100.0,-83.0,-100.0,-100.0,-84.0,-90.0,-100.0,-100.0,-100.0,-91.0,-87.0,-86.0,-91.0,-100.0,-100.0,-100.0,-100.0,-100.0,-100.0,-100.0,-100.0,-100.0,-100.0,-100.0,-100.0,-100.0,-100.0,-100.0,-100.0,-100.0,-100.0,-100.0
2021.05.19 172949,54.0,63.0,9.55181793939394,25.669090530303027,-35.76227237878788,-0.41927016596666666,0.7867913478787879,9.931433765151514,0.0042444766435606055,-0.002150856511969697,-0.00196489434009091,-0.07900571636855597,0.04215945879034482,-0.27579912520719296,1003.1646112121213,-100.0,-100.0,-100.0,-76.0,-78.0,-100.0,-100.0,-100.0,-100.0,-100.0,-100.0,-100.0,-100.0,-100.0,-100.0,-72.0,-100.0,-100.0,-100.0,-100.0,-76.0,-78.0,-80.0,-100.0,-100.0,-100.0,-100.0,-100.0,-100.0,-100.0,-100.0,-100.0,-100.0,-72.0,-100.0,-100.0,-100.0,-100.0,-100.0,-100.0,-100.0,-100.0,-100.0,-100.0,-100.0,-81.0,-100.0,-100.0,-75.0,-75.0,-100.0,-100.0,-68.0,-78.0,-68.0,-76.0,-100.0,-100.0,-100.0,-100.0,-100.0,-84.0,-100.0,-84.0,-100.0,-100.0,-100.0,-100.0,-100.0,-100.0,-100.0,-100.0,-100.0,-100.0,-100.0,-100.0,-100.0,-57.0,-57.0,-100.0,-100.0,-100.0,-100.0,-84.0,-100.0,-100.0,-100.0,-69.0,-100.0,-100.0,-100.0,-100.0,-100.0,-100.0,-100.0,-100.0,-100.0,-68.0,-82.0,-100.0,-100.0,-62.0,-62.0,-87.0,-82.0,-80.0,-85.0,-100.0,-79.0,-84.0,-100.0,-100.0,-87.0,-83.0,-84.0,-87.0,-89.0,-100.0,-88.0,-100.0,-91.0,-100.0,-100.0,-92.0,-100.0,-100.0,-100.0,-100.0,-100.0,-100.0,-100.0,-100.0,-100.0,-100.0,-100.0,-100.0,-100.0,-100.0,-100.0,-100.0,-100.0,-100.0,-100.0
2021.05.19 173003,53.0,62.0,10.06122108778626,26.92717520610687,-38.90977060305344,-0.24993670179389313,0.8877642018320612,9.933736580152672,0.005788101977480916,0.001292838040610687,0.0005706274689923667,-0.08913162600903106,0.025162203621318276,-0.2911646015771473,1003.1299970229005,-100.0,-100.0,-100.0,-81.0,-80.0,-100.0,-100.0,-100.0,-100.0,-100.0,-100.0,-100.0,-100.0,-100.0,-100.0,-77.0,-100.0,-100.0,-92.0,-100.0,-82.0,-81.0,-79.0,-100.0,-100.0,-100.0,-100.0,-100.0,-100.0,-100.0,-100.0,-100.0,-100.0,-77.0,-100.0,-100.0,-100.0,-100.0,-100.0,-100.0,-100.0,-100.0,-100.0,-100.0,-100.0,-79.0,-100.0,-100.0,-100.0,-77.0,-100.0,-100.0,-70.0,-82.0,-70.0,-100.0,-100.0,-100.0,-100.0,-100.0,-100.0,-81.0,-100.0,-81.0,-100.0,-100.0,-100.0,-100.0,-100.0,-100.0,-100.0,-100.0,-100.0,-100.0,-100.0,-100.0,-100.0,-58.0,-58.0,-100.0,-100.0,-100.0,-100.0,-86.0,-100.0,-100.0,-100.0,-67.0,-100.0,-100.0,-100.0,-100.0,-100.0,-100.0,-100.0,-100.0,-100.0,-67.0,-74.0,-100.0,-100.0,-68.0,-68.0,-88.0,-75.0,-80.0,-83.0,-100.0,-80.0,-80.0,-91.0,-100.0,-88.0,-86.0,-86.0,-89.0,-85.0,-100.0,-85.0,-100.0,-100.0,-100.0,-100.0,-100.0,-100.0,-100.0,-100.0,-100.0,-100.0,-100.0,-100.0,-100.0,-100.0,-100.0,-100.0,-100.0,-100.0,-100.0,-100.0,-100.0,-100.0,-100.0,-100.0
2021.05.19 173015,52.0,61.0,10.77714259920635,25.982380579365078,-40.515713817460316,-0.47245122800634926,1.0627539795238095,9.91338084920635,0.0017291753730158726,-0.001855120271190476,-0.0026511261337460314,-0.10682288515898913,0.04753075980549925,-0.28490937489365775,1003.0880283333332,-100.0,-100.0,-100.0,-73.0,-80.0,-100.0,-100.0,-100.0,-100.0,-100.0,-100.0,-100.0,-100.0,-100.0,-100.0,-68.0,-100.0,-100.0,-100.0,-100.0,-73.0,-80.0,-77.0,-100.0,-100.0,-100.0,-100.0,-100.0,-100.0,-100.0,-100.0,-100.0,-100.0,-68.0,-100.0,-100.0,-100.0,-100.0,-100.0,-100.0,-100.0,-100.0,-100.0,-100.0,-100.0,-78.0,-100.0,-100.0,-75.0,-74.0,-100.0,-100.0,-73.0,-78.0,-77.0,-79.0,-100.0,-100.0,-100.0,-100.0,-100.0,-86.0,-100.0,-86.0,-100.0,-100.0,-100.0,-100.0,-100.0,-100.0,-100.0,-100.0,-100.0,-100.0,-100.0,-100.0,-100.0,-53.0,-52.0,-100.0,-100.0,-100.0,-100.0,-89.0,-100.0,-100.0,-100.0,-65.0,-100.0,-100.0,-100.0,-100.0,-100.0,-100.0,-100.0,-100.0,-100.0,-66.0,-75.0,-100.0,-100.0,-66.0,-66.0,-100.0,-75.0,-84.0,-81.0,-100.0,-84.0,-81.0,-86.0,-100.0,-86.0,-87.0,-87.0,-85.0,-85.0,-100.0,-85.0,-100.0,-84.0,-100.0,-100.0,-100.0,-100.0,-100.0,-100.0,-100.0,-100.0,-100.0,-100.0,-100.0,-100.0,-100.0,-100.0,-100.0,-100.0,-100.0,-100.0,-100.0,-100.0,-100.0,-100.0
2021.05.19 173026,51.0,60.0,11.297212885245902,25.262458745901636,-41.097540409836064,-0.5751950861967212,0.8954391549180327,9.906410139344263,0.001957752862295083,-0.002205934737786885,-0.004581479392672131,-0.09015730353163888,0.05786368465356403,-0.29864080714397745,1003.0843014754097,-100.0,-100.0,-100.0,-73.0,-81.0,-100.0,-100.0,-100.0,-100.0,-100.0,-100.0,-100.0,-100.0,-100.0,-100.0,-65.0,-100.0,-100.0,-100.0,-100.0,-73.0,-81.0,-78.0,-100.0,-100.0,-100.0,-100.0,-100.0,-100.0,-100.0,-100.0,-100.0,-100.0,-65.0,-100.0,-100.0,-100.0,-100.0,-100.0,-100.0,-100.0,-100.0,-100.0,-100.0,-100.0,-78.0,-100.0,-100.0,-65.0,-65.0,-100.0,-100.0,-78.0,-80.0,-78.0,-80.0,-100.0,-100.0,-100.0,-100.0,-100.0,-84.0,-100.0,-85.0,-100.0,-100.0,-100.0,-100.0,-100.0,-100.0,-100.0,-100.0,-100.0,-100.0,-100.0,-100.0,-100.0,-56.0,-57.0,-100.0,-100.0,-100.0,-100.0,-84.0,-100.0,-100.0,-100.0,-62.0,-100.0,-100.0,-100.0,-100.0,-100.0,-100.0,-100.0,-100.0,-100.0,-62.0,-69.0,-100.0,-100.0,-72.0,-72.0,-100.0,-69.0,-100.0,-79.0,-100.0,-87.0,-80.0,-86.0,-85.0,-100.0,-83.0,-84.0,-100.0,-89.0,-100.0,-88.0,-100.0,-88.0,-77.0,-78.0,-100.0,-89.0,-90.0,-100.0,-100.0,-100.0,-100.0,-100.0,-100.0,-100.0,-100.0,-100.0,-100.0,-100.0,-100.0,-100.0,-100.0,-100.0,-100.0,-100.0
2021.05.19 173037,50.0,59.0,11.73318159090909,24.001817946969698,-41.03681776515152,-0.6600398945454545,0.8623379758333334,9.920659549242425,0.004077877107575757,-0.0005172548836363634,-0.005134914731257575,-0.08663016473027788,0.06650281973380703,-0.3153410406049454,1003.0821424242423,-100.0,-100.0,-100.0,-72.0,-83.0,-100.0,-100.0,-100.0,-100.0,-100.0,-100.0,-100.0,-100.0,-100.0,-100.0,-66.0,-100.0,-100.0,-100.0,-100.0,-69.0,-83.0,-100.0,-100.0,-100.0,-100.0,-100.0,-100.0,-100.0,-100.0,-100.0,-100.0,-100.0,-66.0,-100.0,-100.0,-100.0,-100.0,-100.0,-100.0,-100.0,-100.0,-100.0,-100.0,-100.0,-74.0,-100.0,-100.0,-69.0,-69.0,-100.0,-100.0,-76.0,-82.0,-76.0,-89.0,-100.0,-100.0,-100.0,-100.0,-100.0,-87.0,-100.0,-85.0,-100.0,-100.0,-100.0,-100.0,-100.0,-100.0,-100.0,-100.0,-100.0,-100.0,-100.0,-100.0,-100.0,-36.0,-50.0,-100.0,-100.0,-100.0,-100.0,-85.0,-100.0,-100.0,-100.0,-69.0,-100.0,-100.0,-100.0,-100.0,-100.0,-100.0,-100.0,-100.0,-100.0,-68.0,-71.0,-100.0,-100.0,-68.0,-68.0,-100.0,-71.0,-100.0,-82.0,-100.0,-100.0,-81.0,-89.0,-89.0,-100.0,-81.0,-81.0,-100.0,-86.0,-100.0,-87.0,-100.0,-100.0,-74.0,-75.0,-100.0,-100.0,-100.0,-100.0,-100.0,-100.0,-100.0,-100.0,-100.0,-100.0,-100.0,-100.0,-100.0,-100.0,-100.0,-100.0,-100.0,-100.0,-100.0,-100.0
2021.05.19 173052,49.0,58.0,11.663513182432434,25.46675639189189,-40.510134506756756,-0.6317002899864864,0.6793916514189189,9.925870672297297,0.0014935820952702704,-0.002212768457702703,-0.0011182630952432436,-0.06827988931154072,0.0635209522576612,-0.3112064648318935,1003.0695342567568,-100.0,-100.0,-100.0,-80.0,-82.0,-100.0,-100.0,-100.0,-100.0,-100.0,-100.0,-100.0,-100.0,-100.0,-100.0,-66.0,-100.0,-100.0,-100.0,-100.0,-100.0,-83.0,-84.0,-100.0,-100.0,-100.0,-100.0,-100.0,-100.0,-100.0,-100.0,-100.0,-100.0,-66.0,-100.0,-100.0,-100.0,-100.0,-100.0,-100.0,-100.0,-100.0,-100.0,-100.0,-100.0,-83.0,-100.0,-100.0,-78.0,-79.0,-100.0,-100.0,-78.0,-100.0,-81.0,-83.0,-100.0,-100.0,-100.0,-100.0,-100.0,-87.0,-100.0,-87.0,-100.0,-100.0,-100.0,-100.0,-100.0,-100.0,-100.0,-100.0,-100.0,-100.0,-100.0,-100.0,-100.0,-57.0,-56.0,-100.0,-100.0,-100.0,-100.0,-100.0,-100.0,-100.0,-100.0,-67.0,-100.0,-100.0,-100.0,-100.0,-100.0,-100.0,-100.0,-100.0,-100.0,-67.0,-65.0,-100.0,-100.0,-71.0,-71.0,-100.0,-65.0,-89.0,-77.0,-100.0,-100.0,-78.0,-86.0,-88.0,-100.0,-85.0,-85.0,-100.0,-85.0,-100.0,-86.0,-100.0,-100.0,-76.0,-76.0,-100.0,-100.0,-100.0,-100.0,-100.0,-100.0,-100.0,-100.0,-100.0,-100.0,-100.0,-100.0,-100.0,-100.0,-100.0,-100.0,-100.0,-100.0,-100.0,-100.0
2021.05.19 173104,48.0,57.0,10.133709495967741,26.98064477419355,-41.18032204838709,-0.5657825858709679,0.7538490057258066,9.923921516129035,0.005280200729032258,-0.0020917405312096777,-0.004832318576370969,-0.07578471462212256,0.05690548518267005,-0.25318653376833083,1003.0643412096773,-100.0,-100.0,-100.0,-77.0,-84.0,-100.0,-100.0,-100.0,-100.0,-100.0,-100.0,-100.0,-100.0,-100.0,-100.0,-61.0,-100.0,-100.0,-100.0,-100.0,-77.0,-84.0,-88.0,-100.0,-100.0,-100.0,-100.0,-100.0,-100.0,-100.0,-100.0,-100.0,-100.0,-61.0,-100.0,-100.0,-100.0,-100.0,-100.0,-100.0,-100.0,-100.0,-100.0,-100.0,-100.0,-88.0,-100.0,-100.0,-76.0,-75.0,-100.0,-100.0,-75.0,-85.0,-75.0,-85.0,-100.0,-100.0,-100.0,-100.0,-100.0,-89.0,-100.0,-89.0,-100.0,-100.0,-100.0,-100.0,-100.0,-100.0,-100.0,-100.0,-100.0,-100.0,-100.0,-100.0,-100.0,-56.0,-57.0,-100.0,-100.0,-100.0,-100.0,-84.0,-100.0,-100.0,-100.0,-69.0,-100.0,-100.0,-100.0,-100.0,-100.0,-100.0,-100.0,-100.0,-100.0,-69.0,-72.0,-100.0,-100.0,-72.0,-72.0,-100.0,-70.0,-100.0,-81.0,-100.0,-100.0,-78.0,-82.0,-81.0,-75.0,-85.0,-84.0,-75.0,-82.0,-100.0,-82.0,-100.0,-100.0,-70.0,-70.0,-89.0,-100.0,-100.0,-100.0,-100.0,-100.0,-100.0,-100.0,-100.0,-100.0,-100.0,-100.0,-100.0,-100.0,-100.0,-100.0,-100.0,-100.0,-100.0,-100.0
2021.05.19 173114,47.0,56.0,9.604319730399997,25.167839744000005,-40.56431945600001,-0.5842413597359998,0.68740587248,9.941890936,0.0054574702872,-0.00097555167776,-0.0023499984242879995,-0.06893404124677177,0.05873678910732265,-0.2530186342000961,1003.0600651199999,-100.0,-100.0,-100.0,-75.0,-82.0,-100.0,-100.0,-100.0,-100.0,-100.0,-100.0,-100.0,-100.0,-100.0,-100.0,-56.0,-100.0,-100.0,-100.0,-100.0,-75.0,-82.0,-85.0,-100.0,-100.0,-100.0,-100.0,-100.0,-100.0,-100.0,-100.0,-100.0,-100.0,-58.0,-100.0,-100.0,-100.0,-100.0,-100.0,-100.0,-100.0,-100.0,-100.0,-100.0,-100.0,-82.0,-100.0,-100.0,-76.0,-76.0,-100.0,-100.0,-86.0,-84.0,-86.0,-82.0,-100.0,-100.0,-100.0,-100.0,-100.0,-100.0,-100.0,-100.0,-100.0,-100.0,-100.0,-100.0,-100.0,-100.0,-100.0,-100.0,-100.0,-100.0,-100.0,-100.0,-100.0,-65.0,-64.0,-100.0,-100.0,-100.0,-100.0,-90.0,-100.0,-100.0,-100.0,-68.0,-100.0,-100.0,-100.0,-100.0,-100.0,-100.0,-100.0,-100.0,-100.0,-69.0,-69.0,-100.0,-100.0,-77.0,-77.0,-100.0,-75.0,-100.0,-76.0,-100.0,-100.0,-73.0,-82.0,-84.0,-74.0,-87.0,-87.0,-75.0,-80.0,-100.0,-80.0,-100.0,-100.0,-70.0,-70.0,-88.0,-87.0,-87.0,-100.0,-100.0,-100.0,-100.0,-100.0,-100.0,-100.0,-100.0,-100.0,-100.0,-100.0,-100.0,-100.0,-100.0,-100.0,-100.0,-100.0
2021.05.19 173125,46.0,55.0,11.055908878787879,22.14818159848485,-41.08727234090909,-0.6506260392803029,0.8654396542424242,9.899364946969698,0.005817917328409092,-0.0035114198386363635,-0.004898898483166668,-0.08706472399221221,0.06548346449254132,-0.3136147811557307,1003.055149621212,-100.0,-100.0,-100.0,-74.0,-80.0,-100.0,-100.0,-100.0,-100.0,-100.0,-100.0,-100.0,-100.0,-100.0,-100.0,-56.0,-100.0,-100.0,-100.0,-100.0,-75.0,-80.0,-83.0,-100.0,-100.0,-100.0,-100.0,-100.0,-100.0,-100.0,-100.0,-100.0,-100.0,-56.0,-100.0,-100.0,-100.0,-100.0,-100.0,-100.0,-100.0,-100.0,-100.0,-100.0,-100.0,-83.0,-100.0,-100.0,-75.0,-74.0,-100.0,-100.0,-83.0,-87.0,-83.0,-100.0,-100.0,-100.0,-100.0,-100.0,-100.0,-100.0,-100.0,-100.0,-100.0,-100.0,-100.0,-100.0,-100.0,-100.0,-89.0,-100.0,-100.0,-100.0,-100.0,-100.0,-100.0,-66.0,-66.0,-100.0,-100.0,-100.0,-100.0,-91.0,-100.0,-100.0,-100.0,-65.0,-100.0,-100.0,-100.0,-100.0,-100.0,-100.0,-100.0,-100.0,-100.0,-65.0,-64.0,-100.0,-100.0,-74.0,-73.0,-100.0,-65.0,-100.0,-72.0,-100.0,-100.0,-72.0,-83.0,-84.0,-76.0,-85.0,-86.0,-76.0,-82.0,-100.0,-83.0,-100.0,-86.0,-63.0,-63.0,-86.0,-100.0,-100.0,-88.0,-87.0,-100.0,-100.0,-100.0,-100.0,-100.0,-100.0,-100.0,-100.0,-100.0,-100.0,-100.0,-100.0,-100.0,-100.0,-100.0
2021.05.19 173136,45.0,54.0,10.761068435114504,23.143511229007633,-41.09083910687023,-0.5406309066412214,0.7716875641984734,9.935180477099236,0.004337880146183207,-0.001677552491984733,0.00048669161320610767,-0.07746587019726515,0.0543731958356522,-0.31307990166522165,1003.0465080152671,-100.0,-100.0,-100.0,-78.0,-78.0,-100.0,-100.0,-100.0,-100.0,-100.0,-100.0,-100.0,-100.0,-100.0,-100.0,-54.0,-100.0,-100.0,-100.0,-100.0,-78.0,-79.0,-86.0,-100.0,-100.0,-100.0,-100.0,-100.0,-100.0,-100.0,-100.0,-100.0,-100.0,-53.0,-100.0,-100.0,-100.0,-100.0,-100.0,-100.0,-100.0,-100.0,-100.0,-100.0,-100.0,-86.0,-100.0,-100.0,-82.0,-82.0,-100.0,-100.0,-82.0,-84.0,-82.0,-83.0,-100.0,-100.0,-100.0,-100.0,-100.0,-88.0,-100.0,-88.0,-100.0,-100.0,-100.0,-100.0,-100.0,-100.0,-88.0,-100.0,-100.0,-100.0,-100.0,-100.0,-100.0,-66.0,-65.0,-100.0,-100.0,-100.0,-100.0,-100.0,-100.0,-100.0,-100.0,-75.0,-100.0,-100.0,-100.0,-100.0,-100.0,-100.0,-100.0,-100.0,-100.0,-76.0,-64.0,-100.0,-100.0,-80.0,-80.0,-100.0,-63.0,-100.0,-73.0,-100.0,-100.0,-72.0,-85.0,-84.0,-76.0,-87.0,-86.0,-75.0,-77.0,-100.0,-77.0,-100.0,-79.0,-64.0,-64.0,-88.0,-100.0,-100.0,-89.0,-89.0,-100.0,-100.0,-100.0,-100.0,-100.0,-100.0,-100.0,-100.0,-100.0,-100.0,-100.0,-100.0,-100.0,-100.0,-100.0
2021.05.19 173147,44.0,53.0,9.702978480851064,23.393616765957447,-38.97531865248227,-0.5549962966312058,0.8425639858156028,9.913231666666666,0.0028959257978723404,-0.007577159459858156,0.0015543749719716315,-0.08482092101100486,0.05566919500549841,-0.274903156761582,1003.0443180141843,-100.0,-100.0,-100.0,-82.0,-82.0,-100.0,-100.0,-100.0,-100.0,-100.0,-100.0,-100.0,-100.0,-100.0,-100.0,-59.0,-100.0,-100.0,-100.0,-100.0,-82.0,-83.0,-100.0,-100.0,-100.0,-100.0,-100.0,-100.0,-100.0,-100.0,-100.0,-100.0,-100.0,-59.0,-100.0,-100.0,-100.0,-100.0,-100.0,-100.0,-100.0,-100.0,-100.0,-100.0,-100.0,-100.0,-100.0,-100.0,-88.0,-88.0,-100.0,-100.0,-86.0,-100.0,-86.0,-100.0,-100.0,-100.0,-100.0,-100.0,-100.0,-100.0,-100.0,-100.0,-100.0,-100.0,-100.0,-100.0,-100.0,-100.0,-88.0,-100.0,-100.0,-100.0,-100.0,-100.0,-100.0,-63.0,-63.0,-100.0,-100.0,-100.0,-100.0,-93.0,-100.0,-100.0,-100.0,-73.0,-100.0,-100.0,-100.0,-100.0,-100.0,-100.0,-100.0,-100.0,-100.0,-73.0,-65.0,-100.0,-100.0,-82.0,-81.0,-100.0,-66.0,-100.0,-75.0,-100.0,-100.0,-75.0,-80.0,-80.0,-73.0,-88.0,-87.0,-74.0,-76.0,-100.0,-76.0,-100.0,-78.0,-64.0,-64.0,-100.0,-90.0,-100.0,-100.0,-100.0,-90.0,-100.0,-100.0,-100.0,-100.0,-100.0,-100.0,-100.0,-100.0,-100.0,-100.0,-100.0,-100.0,-100.0,-100.0
2021.05.19 173159,43.0,52.0,12.556278821705426,23.779069480620155,-38.09953451162791,-0.5555459991472869,0.7872152858914728,9.92853788372093,0.005504520838759688,0.003193030454186046,0.00262477430832558,-0.07905142009258266,0.05591228945079695,-0.3710123563921729,1003.0429248062015,-100.0,-100.0,-100.0,-77.0,-88.0,-100.0,-100.0,-100.0,-100.0,-100.0,-100.0,-100.0,-100.0,-100.0,-100.0,-57.0,-100.0,-100.0,-100.0,-100.0,-77.0,-87.0,-86.0,-100.0,-100.0,-100.0,-100.0,-100.0,-100.0,-100.0,-100.0,-100.0,-100.0,-58.0,-100.0,-100.0,-100.0,-100.0,-100.0,-100.0,-100.0,-100.0,-100.0,-100.0,-100.0,-85.0,-100.0,-100.0,-100.0,-100.0,-100.0,-100.0,-82.0,-86.0,-83.0,-86.0,-100.0,-100.0,-100.0,-100.0,-100.0,-100.0,-100.0,-88.0,-100.0,-100.0,-100.0,-100.0,-100.0,-100.0,-100.0,-100.0,-100.0,-100.0,-100.0,-100.0,-100.0,-65.0,-65.0,-100.0,-100.0,-100.0,-100.0,-90.0,-100.0,-100.0,-100.0,-72.0,-100.0,-100.0,-100.0,-100.0,-100.0,-100.0,-100.0,-100.0,-100.0,-73.0,-67.0,-100.0,-100.0,-82.0,-83.0,-100.0,-67.0,-100.0,-78.0,-100.0,-100.0,-77.0,-80.0,-78.0,-69.0,-100.0,-100.0,-71.0,-74.0,-100.0,-74.0,-100.0,-77.0,-68.0,-69.0,-91.0,-100.0,-87.0,-88.0,-91.0,-100.0,-100.0,-100.0,-100.0,-100.0,-100.0,-100.0,-100.0,-100.0,-100.0,-100.0,-100.0,-100.0,-100.0,-100.0
2021.05.19 173210,42.0,51.0,12.346874781250001,25.2492184453125,-38.97562446875,-0.421972230328125,0.7000635059375,9.93584771875,0.00592970702578125,-0.0026949083013281254,-0.0050861786417187495,-0.07039735939179076,0.04245679029008893,-0.36543088173493743,1003.032710546875,-100.0,-100.0,-100.0,-78.0,-82.0,-100.0,-100.0,-100.0,-100.0,-100.0,-100.0,-100.0,-100.0,-100.0,-100.0,-62.0,-100.0,-100.0,-100.0,-100.0,-77.0,-82.0,-100.0,-100.0,-100.0,-100.0,-100.0,-100.0,-100.0,-100.0,-100.0,-100.0,-100.0,-62.0,-100.0,-100.0,-100.0,-100.0,-100.0,-100.0,-100.0,-100.0,-100.0,-100.0,-100.0,-100.0,-100.0,-100.0,-74.0,-75.0,-100.0,-100.0,-87.0,-84.0,-87.0,-91.0,-100.0,-100.0,-100.0,-100.0,-100.0,-89.0,-100.0,-100.0,-100.0,-100.0,-100.0,-100.0,-100.0,-100.0,-100.0,-100.0,-100.0,-100.0,-100.0,-100.0,-100.0,-69.0,-69.0,-100.0,-100.0,-100.0,-100.0,-100.0,-100.0,-100.0,-100.0,-76.0,-100.0,-100.0,-100.0,-100.0,-100.0,-100.0,-100.0,-100.0,-100.0,-87.0,-59.0,-100.0,-100.0,-85.0,-84.0,-100.0,-59.0,-100.0,-80.0,-100.0,-100.0,-83.0,-82.0,-82.0,-100.0,-100.0,-100.0,-100.0,-70.0,-100.0,-70.0,-100.0,-100.0,-75.0,-75.0,-89.0,-87.0,-87.0,-100.0,-100.0,-90.0,-100.0,-100.0,-100.0,-100.0,-100.0,-100.0,-100.0,-100.0,-100.0,-100.0,-100.0,-100.0,-100.0,-100.0
2021.05.19 173221,41.0,50.0,9.216363483333334,25.140454257575755,-37.737272204545455,-0.4386783067878788,0.5728483838333334,9.948502125000001,0.004295382070454545,-0.0064222855346212126,-0.005208958910803032,-0.057557051472196474,0.04410641138251359,-0.270081637370767,1003.0335184848483,-100.0,-100.0,-100.0,-85.0,-86.0,-100.0,-100.0,-100.0,-100.0,-100.0,-100.0,-100.0,-100.0,-100.0,-100.0,-60.0,-100.0,-100.0,-100.0,-100.0,-85.0,-86.0,-100.0,-100.0,-100.0,-100.0,-100.0,-100.0,-100.0,-100.0,-100.0,-100.0,-100.0,-61.0,-100.0,-100.0,-100.0,-100.0,-100.0,-100.0,-100.0,-100.0,-100.0,-100.0,-100.0,-100.0,-100.0,-100.0,-78.0,-100.0,-100.0,-100.0,-100.0,-100.0,-100.0,-100.0,-100.0,-100.0,-100.0,-100.0,-100.0,-100.0,-100.0,-100.0,-100.0,-100.0,-100.0,-100.0,-100.0,-100.0,-100.0,-100.0,-100.0,-100.0,-100.0,-100.0,-100.0,-74.0,-73.0,-100.0,-100.0,-100.0,-100.0,-100.0,-100.0,-100.0,-100.0,-78.0,-100.0,-100.0,-100.0,-100.0,-100.0,-100.0,-100.0,-100.0,-100.0,-77.0,-54.0,-100.0,-100.0,-100.0,-100.0,-100.0,-54.0,-100.0,-77.0,-100.0,-100.0,-75.0,-80.0,-80.0,-72.0,-100.0,-100.0,-70.0,-74.0,-100.0,-74.0,-100.0,-81.0,-80.0,-80.0,-87.0,-90.0,-90.0,-100.0,-100.0,-100.0,-86.0,-86.0,-100.0,-100.0,-100.0,-100.0,-100.0,-100.0,-100.0,-100.0,-100.0,-100.0,-100.0,-100.0
2021.05.19 173232,40.0,49.0,8.898947207518795,24.025714,-36.18270629323308,-0.5380277554436091,0.6555992484962406,9.93332412030075,0.00374370365,-0.005303931456992482,-0.002009640853578948,-0.0659398304060437,0.05399253074941046,-0.2569177498046617,1003.0311374436089,-100.0,-100.0,-100.0,-81.0,-85.0,-100.0,-100.0,-100.0,-100.0,-100.0,-100.0,-100.0,-100.0,-100.0,-100.0,-62.0,-100.0,-100.0,-100.0,-100.0,-82.0,-84.0,-100.0,-100.0,-100.0,-100.0,-100.0,-100.0,-100.0,-100.0,-100.0,-100.0,-100.0,-62.0,-100.0,-100.0,-100.0,-100.0,-100.0,-100.0,-100.0,-100.0,-100.0,-100.0,-100.0,-100.0,-100.0,-100.0,-100.0,-82.0,-100.0,-100.0,-90.0,-100.0,-90.0,-100.0,-100.0,-100.0,-100.0,-100.0,-100.0,-89.0,-100.0,-89.0,-100.0,-100.0,-100.0,-100.0,-100.0,-100.0,-100.0,-100.0,-100.0,-100.0,-100.0,-100.0,-100.0,-74.0,-75.0,-100.0,-100.0,-100.0,-100.0,-100.0,-100.0,-100.0,-100.0,-76.0,-100.0,-100.0,-100.0,-100.0,-100.0,-100.0,-100.0,-100.0,-100.0,-76.0,-63.0,-100.0,-100.0,-89.0,-100.0,-100.0,-64.0,-100.0,-100.0,-100.0,-100.0,-100.0,-79.0,-79.0,-74.0,-100.0,-100.0,-73.0,-72.0,-100.0,-72.0,-100.0,-79.0,-81.0,-80.0,-100.0,-85.0,-86.0,-100.0,-100.0,-100.0,-83.0,-83.0,-88.0,-87.0,-100.0,-100.0,-100.0,-100.0,-100.0,-100.0,-100.0,-100.0,-100.0,-100.0
2021.05.19 173243,39.0,48.0,9.785901375409837,23.158524377049176,-37.42524537704917,-0.4269070496885246,0.7755880331967212,9.926761461475408,0.005532816611885245,-0.004434090668934426,-0.0035099615673278685,-0.07803592601882627,0.04272722542575999,-0.30449871315819316,1003.0298075409837,-100.0,-100.0,-100.0,-79.0,-89.0,-100.0,-100.0,-100.0,-100.0,-100.0,-100.0,-100.0,-100.0,-100.0,-100.0,-67.0,-100.0,-100.0,-100.0,-100.0,-79.0,-89.0,-100.0,-100.0,-100.0,-100.0,-100.0,-100.0,-100.0,-100.0,-100.0,-100.0,-100.0,-68.0,-100.0,-100.0,-100.0,-100.0,-100.0,-100.0,-100.0,-100.0,-100.0,-100.0,-100.0,-100.0,-100.0,-100.0,-79.0,-78.0,-100.0,-100.0,-89.0,-84.0,-89.0,-84.0,-100.0,-100.0,-100.0,-100.0,-100.0,-100.0,-100.0,-100.0,-100.0,-100.0,-100.0,-100.0,-100.0,-100.0,-100.0,-100.0,-100.0,-100.0,-100.0,-100.0,-100.0,-70.0,-71.0,-100.0,-100.0,-100.0,-100.0,-100.0,-100.0,-100.0,-100.0,-79.0,-100.0,-100.0,-100.0,-100.0,-100.0,-100.0,-100.0,-100.0,-100.0,-79.0,-56.0,-100.0,-100.0,-87.0,-88.0,-100.0,-58.0,-100.0,-82.0,-100.0,-100.0,-100.0,-74.0,-73.0,-69.0,-100.0,-100.0,-69.0,-71.0,-100.0,-71.0,-100.0,-79.0,-88.0,-86.0,-82.0,-100.0,-100.0,-100.0,-100.0,-88.0,-100.0,-100.0,-100.0,-100.0,-100.0,-100.0,-100.0,-100.0,-100.0,-100.0,-100.0,-100.0,-100.0,-100.0
2021.05.19 173253,38.0,47.0,11.856806420168066,22.47983168067227,-38.519999512605054,-0.5366797147394958,0.5832171739495796,9.945737042016805,0.008471222617226892,-0.00571081474907563,-0.006278673414117647,-0.058511203530581014,0.05392447327647135,-0.37592395889658886,1003.024936806723,-100.0,-100.0,-100.0,-79.0,-100.0,-100.0,-100.0,-100.0,-100.0,-100.0,-100.0,-100.0,-100.0,-100.0,-100.0,-72.0,-100.0,-100.0,-100.0,-100.0,-81.0,-89.0,-100.0,-100.0,-100.0,-100.0,-100.0,-100.0,-100.0,-100.0,-100.0,-100.0,-100.0,-72.0,-100.0,-100.0,-100.0,-100.0,-100.0,-100.0,-100.0,-100.0,-100.0,-100.0,-100.0,-100.0,-100.0,-100.0,-100.0,-100.0,-100.0,-100.0,-90.0,-100.0,-92.0,-100.0,-100.0,-100.0,-100.0,-100.0,-100.0,-100.0,-100.0,-100.0,-100.0,-100.0,-100.0,-100.0,-100.0,-100.0,-100.0,-100.0,-100.0,-100.0,-100.0,-100.0,-100.0,-74.0,-75.0,-100.0,-100.0,-100.0,-100.0,-100.0,-100.0,-100.0,-100.0,-79.0,-100.0,-100.0,-100.0,-100.0,-100.0,-100.0,-100.0,-100.0,-100.0,-79.0,-60.0,-100.0,-100.0,-100.0,-100.0,-100.0,-60.0,-100.0,-100.0,-100.0,-100.0,-100.0,-77.0,-77.0,-100.0,-100.0,-100.0,-100.0,-70.0,-100.0,-70.0,-100.0,-79.0,-84.0,-82.0,-80.0,-83.0,-84.0,-100.0,-100.0,-100.0,-84.0,-84.0,-100.0,-85.0,-88.0,-94.0,-87.0,-100.0,-100.0,-100.0,-100.0,-100.0,-100.0,-100.0
2021.05.19 173303,37.0,46.0,11.72571409126984,23.83666643650794,-38.46380916666667,-0.4466842706825397,0.5605833437301588,9.95421648809524,0.006858503725396826,-0.0012297106074603168,0.0015570567832539678,-0.05621271423758964,0.044889718948286875,-0.36707185303408,1003.0272361111112,-100.0,-100.0,-100.0,-82.0,-100.0,-100.0,-100.0,-100.0,-100.0,-100.0,-100.0,-100.0,-100.0,-100.0,-100.0,-70.0,-100.0,-100.0,-100.0,-100.0,-82.0,-100.0,-100.0,-100.0,-100.0,-100.0,-100.0,-100.0,-100.0,-100.0,-100.0,-100.0,-100.0,-71.0,-100.0,-100.0,-100.0,-100.0,-100.0,-100.0,-100.0,-100.0,-100.0,-100.0,-100.0,-100.0,-100.0,-100.0,-84.0,-85.0,-100.0,-100.0,-92.0,-100.0,-90.0,-100.0,-100.0,-100.0,-100.0,-100.0,-100.0,-100.0,-100.0,-100.0,-100.0,-100.0,-100.0,-100.0,-100.0,-100.0,-100.0,-100.0,-100.0,-100.0,-100.0,-100.0,-100.0,-81.0,-81.0,-100.0,-100.0,-100.0,-100.0,-100.0,-100.0,-100.0,-100.0,-85.0,-100.0,-100.0,-100.0,-100.0,-100.0,-100.0,-100.0,-100.0,-100.0,-86.0,-66.0,-100.0,-100.0,-100.0,-100.0,-100.0,-67.0,-100.0,-100.0,-100.0,-100.0,-100.0,-71.0,-71.0,-66.0,-100.0,-100.0,-66.0,-70.0,-100.0,-70.0,-100.0,-79.0,-100.0,-100.0,-80.0,-84.0,-82.0,-100.0,-100.0,-100.0,-76.0,-76.0,-100.0,-87.0,-100.0,-94.0,-88.0,-100.0,-100.0,-100.0,-100.0,-100.0,-100.0,-100.0
2021.05.19 173314,36.0,45.0,12.57374966796875,25.880624617187497,-36.9501556875,-0.505958903125,0.74995046671875,9.933228867187498,0.004922734130859375,-0.00489020549671875,-0.0010344235965781248,-0.07531206094427031,0.050880731345387134,-0.35697193746455014,1003.026702734375,-100.0,-100.0,-100.0,-82.0,-87.0,-100.0,-100.0,-100.0,-100.0,-100.0,-100.0,-100.0,-100.0,-100.0,-100.0,-76.0,-100.0,-100.0,-100.0,-100.0,-82.0,-87.0,-100.0,-100.0,-100.0,-100.0,-100.0,-100.0,-100.0,-100.0,-100.0,-100.0,-100.0,-69.0,-100.0,-100.0,-100.0,-100.0,-100.0,-100.0,-100.0,-100.0,-100.0,-100.0,-100.0,-100.0,-100.0,-100.0,-82.0,-81.0,-100.0,-100.0,-90.0,-100.0,-90.0,-88.0,-100.0,-100.0,-100.0,-100.0,-100.0,-100.0,-100.0,-100.0,-100.0,-100.0,-100.0,-100.0,-100.0,-100.0,-100.0,-100.0,-100.0,-100.0,-100.0,-100.0,-100.0,-75.0,-76.0,-100.0,-100.0,-100.0,-100.0,-100.0,-100.0,-100.0,-100.0,-82.0,-100.0,-100.0,-100.0,-100.0,-100.0,-100.0,-100.0,-100.0,-100.0,-80.0,-61.0,-100.0,-100.0,-100.0,-100.0,-100.0,-61.0,-100.0,-100.0,-100.0,-100.0,-100.0,-73.0,-73.0,-69.0,-100.0,-100.0,-69.0,-70.0,-100.0,-70.0,-100.0,-78.0,-100.0,-100.0,-82.0,-83.0,-84.0,-100.0,-100.0,-100.0,-83.0,-82.0,-100.0,-100.0,-81.0,-100.0,-100.0,-100.0,-100.0,-100.0,-100.0,-100.0,-100.0,-100.0
2021.05.19 173339,34.0,43.0,17.267368225563906,27.994736578947368,-39.08165333082707,-0.6590196406766916,0.8813811624812031,9.925223225563908,0.007790111733082706,-0.0023139067012781954,0.00037870436461654204,-0.08845447338557327,0.06629712341171229,-0.43579011774600895,1002.9326939097745,-100.0,-100.0,-100.0,-77.0,-89.0,-100.0,-100.0,-100.0,-100.0,-100.0,-100.0,-100.0,-100.0,-100.0,-100.0,-75.0,-100.0,-100.0,-100.0,-100.0,-78.0,-89.0,-100.0,-100.0,-100.0,-100.0,-100.0,-100.0,-100.0,-100.0,-100.0,-100.0,-100.0,-75.0,-100.0,-100.0,-100.0,-100.0,-100.0,-100.0,-100.0,-100.0,-100.0,-100.0,-100.0,-100.0,-100.0,-100.0,-86.0,-100.0,-100.0,-100.0,-92.0,-90.0,-90.0,-100.0,-100.0,-100.0,-100.0,-100.0,-100.0,-100.0,-100.0,-100.0,-100.0,-100.0,-100.0,-100.0,-100.0,-100.0,-100.0,-100.0,-100.0,-100.0,-100.0,-100.0,-100.0,-80.0,-81.0,-100.0,-100.0,-100.0,-100.0,-100.0,-100.0,-100.0,-100.0,-82.0,-100.0,-100.0,-100.0,-100.0,-100.0,-100.0,-100.0,-100.0,-100.0,-83.0,-57.0,-100.0,-100.0,-100.0,-100.0,-100.0,-57.0,-100.0,-88.0,-100.0,-100.0,-83.0,-77.0,-77.0,-68.0,-100.0,-100.0,-69.0,-69.0,-100.0,-69.0,-100.0,-82.0,-100.0,-100.0,-78.0,-83.0,-83.0,-100.0,-100.0,-91.0,-80.0,-80.0,-100.0,-86.0,-73.0,-92.0,-86.0,-86.0,-100.0,-100.0,-100.0,-100.0,-100.0,-100.0
2021.05.19 173350,33.0,42.0,17.03999976296296,25.201777474074078,-39.279110511111114,-0.571415849925926,1.0206882202962961,9.893462733333335,0.007990705554814816,-0.003881641164222223,-0.003626571283348148,-0.102759065327269,0.05756293395879087,-0.46792330278290645,1002.8950527407408,-100.0,-100.0,-100.0,-76.0,-85.0,-100.0,-100.0,-100.0,-100.0,-100.0,-100.0,-100.0,-100.0,-100.0,-100.0,-82.0,-100.0,-100.0,-100.0,-100.0,-76.0,-86.0,-91.0,-100.0,-100.0,-100.0,-100.0,-100.0,-100.0,-100.0,-100.0,-100.0,-100.0,-82.0,-100.0,-100.0,-100.0,-100.0,-100.0,-100.0,-100.0,-100.0,-100.0,-100.0,-100.0,-100.0,-100.0,-100.0,-86.0,-85.0,-100.0,-100.0,-89.0,-87.0,-90.0,-86.0,-100.0,-100.0,-100.0,-100.0,-100.0,-100.0,-100.0,-100.0,-100.0,-100.0,-100.0,-100.0,-100.0,-88.0,-88.0,-100.0,-100.0,-100.0,-100.0,-100.0,-100.0,-78.0,-78.0,-100.0,-100.0,-100.0,-100.0,-100.0,-100.0,-100.0,-100.0,-83.0,-100.0,-100.0,-100.0,-100.0,-100.0,-100.0,-100.0,-100.0,-100.0,-83.0,-64.0,-100.0,-100.0,-100.0,-100.0,-100.0,-64.0,-100.0,-91.0,-100.0,-100.0,-90.0,-71.0,-71.0,-73.0,-100.0,-100.0,-73.0,-71.0,-100.0,-71.0,-100.0,-84.0,-100.0,-100.0,-74.0,-82.0,-82.0,-100.0,-100.0,-92.0,-85.0,-86.0,-100.0,-82.0,-76.0,-88.0,-83.0,-86.0,-100.0,-100.0,-100.0,-100.0,-100.0,-100.0
2021.05.19 173402,32.0,41.0,15.813953178294575,26.45209270542636,-38.693487550387594,-0.628432174496124,0.8253380778294573,9.9318602248062,0.006560512921317829,-0.0035833119579069764,-0.0032849918234263567,-0.08278287903860554,0.06316213464985286,-0.42290071392244144,1002.8982141085271,-100.0,-100.0,-100.0,-83.0,-100.0,-100.0,-100.0,-100.0,-100.0,-100.0,-100.0,-100.0,-100.0,-100.0,-100.0,-72.0,-100.0,-100.0,-100.0,-100.0,-83.0,-100.0,-100.0,-100.0,-100.0,-100.0,-100.0,-100.0,-100.0,-100.0,-100.0,-100.0,-100.0,-71.0,-100.0,-100.0,-100.0,-100.0,-100.0,-100.0,-100.0,-100.0,-100.0,-100.0,-100.0,-100.0,-100.0,-100.0,-81.0,-81.0,-100.0,-100.0,-90.0,-85.0,-91.0,-85.0,-100.0,-100.0,-100.0,-100.0,-100.0,-100.0,-100.0,-100.0,-100.0,-100.0,-100.0,-100.0,-100.0,-100.0,-100.0,-100.0,-100.0,-100.0,-100.0,-100.0,-100.0,-73.0,-73.0,-100.0,-100.0,-100.0,-100.0,-100.0,-100.0,-100.0,-100.0,-100.0,-100.0,-100.0,-100.0,-100.0,-100.0,-100.0,-100.0,-100.0,-100.0,-100.0,-61.0,-100.0,-100.0,-100.0,-100.0,-100.0,-61.0,-100.0,-100.0,-100.0,-100.0,-100.0,-71.0,-70.0,-78.0,-100.0,-100.0,-77.0,-69.0,-100.0,-69.0,-100.0,-79.0,-100.0,-100.0,-72.0,-80.0,-80.0,-100.0,-100.0,-100.0,-87.0,-86.0,-100.0,-80.0,-71.0,-100.0,-80.0,-85.0,-92.0,-89.0,-100.0,-100.0,-100.0,-100.0
2021.05.19 173413,31.0,40.0,16.190697449612404,26.511627620155036,-40.736743821705424,-0.6294529884728682,0.7889970703875969,9.924900143410852,0.005234603591472867,-0.0050986364982170546,-0.0006615857596589149,-0.07919465891959127,0.06335832914445803,-0.42830359843350196,1002.9020526356588,-100.0,-100.0,-100.0,-76.0,-84.0,-100.0,-100.0,-100.0,-100.0,-100.0,-100.0,-100.0,-100.0,-100.0,-100.0,-77.0,-100.0,-100.0,-100.0,-100.0,-76.0,-84.0,-100.0,-100.0,-100.0,-100.0,-100.0,-100.0,-100.0,-100.0,-100.0,-100.0,-100.0,-77.0,-100.0,-100.0,-100.0,-100.0,-100.0,-100.0,-100.0,-100.0,-100.0,-100.0,-100.0,-92.0,-100.0,-100.0,-86.0,-85.0,-100.0,-100.0,-100.0,-84.0,-100.0,-86.0,-100.0,-100.0,-100.0,-100.0,-100.0,-100.0,-100.0,-100.0,-100.0,-100.0,-100.0,-100.0,-100.0,-100.0,-100.0,-100.0,-100.0,-100.0,-100.0,-100.0,-100.0,-76.0,-100.0,-100.0,-100.0,-100.0,-100.0,-100.0,-100.0,-100.0,-100.0,-100.0,-100.0,-100.0,-100.0,-100.0,-100.0,-100.0,-100.0,-100.0,-100.0,-100.0,-62.0,-100.0,-100.0,-100.0,-100.0,-100.0,-64.0,-100.0,-100.0,-100.0,-100.0,-100.0,-66.0,-67.0,-75.0,-100.0,-100.0,-75.0,-68.0,-100.0,-68.0,-100.0,-100.0,-100.0,-100.0,-71.0,-80.0,-80.0,-100.0,-100.0,-91.0,-86.0,-87.0,-100.0,-77.0,-68.0,-88.0,-77.0,-86.0,-100.0,-100.0,-100.0,-100.0,-100.0,-100.0
