Timestamp,True_X,True_Y,Mean_Mag_x,Mean_Mag_y,Mean_Mag_z,Mean_Acc_x,Mean_Acc_y,Mean_Acc_z,Mean_Gyro_x,Mean_Gyro_y,Mean_Gyro_z,Mean_Orn_x,Mean_Orn_y,Mean_Orn_z,Mean_Pressure,00:1a:ab:a0:de:a1,00:1a:ac:a0:de:b3,00:1a:ac:a0:de:b5,00:1a:ac:a0:de:b7,00:1a:ac:a0:de:b8,00:1a:ac:a0:de:f5,00:1a:ac:a0:de:f6,00:1a:ac:a0:de:f8,00:1a:ac:a0:de:g9,00:1a:ac:a0:de:h2,00:1a:ac:a0:de:h4,00:1a:ac:a0:de:i1,00:1a:ac:a0:de:i2,00:1a:ac:a0:de:i8,00:1a:ac:a0:de:k7,00:1a:ac:a0:de:k8,00:1a:ac:a0:de:l2,00:1a:ac:a0:de:n4,00:1a:ac:a0:de:n6,00:1a:ac:a0:de:p1,00:1a:ac:a0:de:p2,00:1a:ac:a0:de:p3,00:1a:ac:a0:de:p4,00:1a:ac:a0:de:p5,00:1a:ac:a0:de:p6,00:1a:ac:a0:de:p7,00:1a:ac:a0:de:p8,00:1a:ac:a0:de:r1,00:1a:ac:a0:de:r2,00:1a:ac:a0:de:r5,00:1a:ac:a0:de:r6,00:1a:ac:a0:de:r9,00:1a:ac:a0:de:s1,00:1a:ac:a0:de:s2,00:1a:ac:a0:de:s3,00:1a:ac:a0:de:s4,00:1a:ac:a0:de:s5,00:1a:ac:a0:de:s6,00:1a:ac:a0:de:s7,00:1a:ac:a0:de:t3,00:1a:ac:a0:de:t5,00:1a:ac:a0:de:t7,00:1a:ac:a0:de:t8,00:1a:ac:a0:de:t9,00:1a:ac:a0:de:u1,00:1a:ac:a0:de:u2,00:1a:ac:a0:de:u3,00:1a:ac:a0:de:u4,00:1a:ac:a0:de:u5,00:1a:ac:a0:de:v7,00:1a:ac:a0:de:v8,00:1a:ac:a0:de:w2,00:1a:ac:a0:de:w3,00:1a:ac:a0:de:w6,00:1a:ac:a0:de:w7,00:1a:ac:a0:de:w8,00:1a:ac:a0:de:w9,00:1a:ac:a0:de:x1,00:1a:ac:a0:de:x2,00:1a:ac:a0:de:x3,00:1a:ac:a0:de:x4,00:1a:ac:a0:de:x7,00:1a:ab:a0:de:a9,00:1a:ac:a0:de:b6,00:1a:ac:a0:de:e8,00:1a:ac:a0:de:f7,00:1a:ac:a0:de:g2,00:1a:ac:a0:de:j7,00:1a:ac:a0:de:k9,00:1a:ac:a0:de:l7,00:1a:ac:a0:de:l9,00:1a:ac:a0:de:m1,00:1a:ac:a0:de:n1,00:1a:ac:a0:de:n8,00:1a:ac:a0:de:g4,00:1a:ac:a0:de:h7,00:1a:ac:a0:de:n3,00:1a:ac:a0:de:g1,00:1a:ac:a0:de:h3,00:1a:ab:a0:de:a4,00:1a:ab:a0:de:a7,00:1a:ac:a0:de:k4,00:1a:ac:a0:de:q4,00:1a:ac:a0:de:g5,00:1a:ac:a0:de:j8,00:1a:ac:a0:de:j9,00:1a:ac:a0:de:h6,00:1a:ac:a0:de:x8,00:1a:ac:a0:de:t1,00:1a:ac:a0:de:h9,00:1a:ac:a0:de:d5,00:1a:ac:a0:de:n9,00:1a:ac:a0:de:t6,00:1a:ab:a0:de:a2,00:1a:ac:a0:de:i9,00:1a:ac:a0:de:l1,00:1a:ac:a0:de:m9,00:1a:ac:a0:de:b2,00:1a:ac:a0:de:e9,00:1a:ac:a0:de:f3,00:1a:ac:a0:de:m4,00:1a:ac:a0:de:g8,00:1a:ac:a0:de:k2,00:1a:ac:a0:de:v1,00:1a:ac:a0:de:f2,70:5d:cc:05:03:10,00:1a:ac:a0:de:d4,00:1a:ac:a0:de:n7,00:1a:ac:a0:de:r3,00:1a:ac:a0:de:t4,00:1a:ac:a0:de:g7,00:1a:ac:a0:de:t2,00:1a:ac:a0:de:l8,00:1a:ac:a0:de:n5,00:1a:ac:a0:de:r7,90:9f:33:a4:06:5c,00:1a:ac:a0:de:i6,00:1a:ac:a0:de:v9,00:1a:ac:a0:de:j6,00:1a:ac:a0:de:b1,00:1a:ac:a0:de:f9,00:1a:ac:a0:de:k1,00:1a:ac:a0:de:w4,00:1a:ac:a0:de:w1,00:1a:ac:a0:de:k3,00:1a:ac:a0:de:r4,00:1a:ac:a0:de:b4,00:1a:ac:a0:de:m8,00:1a:ac:a0:de:u8,00:1a:ac:a0:de:j1,00:1a:ac:a0:de:k5,00:1a:ac:a0:de:j2,00:1a:ac:a0:de:f4,00:1a:ac:a0:de:l3,00:1a:ac:a0:de:c9,00:1a:ac:a0:de:d1,00:1a:ac:a0:de:e2,00:1a:ac:a0:de:e5,00:1a:ac:a0:de:j4,00:1a:ac:a0:de:i7,00:1a:ac:a0:de:r8,00:1a:ac:a0:de:w5,00:1a:ac:a0:de:m6,00:1a:ac:a0:de:h5,00:1a:ab:a0:de:a8,00:1a:ac:a0:de:j5,00:1a:ac:a0:de:c2,00:1a:ac:a0:de:q2,00:1a:ac:a0:de:v3,00:1a:ac:a0:de:c1,00:1a:ac:a0:de:m7,00:1a:ac:a0:de:q5,00:1a:ac:a0:de:v2,00:1a:ac:a0:de:m5,00:1a:ac:a0:de:q6,00:1a:ac:a0:de:p9,00:1a:ac:a0:de:u6,00:1a:ac:a0:de:s8,00:1a:ac:a0:de:q3,00:1a:ac:a0:de:u9,00:1a:ac:a0:de:q8,00:1a:ac:a0:de:v5,00:1a:ac:a0:de:x5,00:1a:ac:a0:de:q1,00:1a:ac:a0:de:q9,00:1a:ac:a0:de:s9,00:1a:ac:a0:de:u7,00:1a:ac:a0:de:v6,00:1a:ac:a0:de:x6,00:1a:ab:a0:de:a6,00:1a:ac:a0:de:d8,00:1a:ac:a0:de:e1,00:1a:ac:a0:de:j3,00:1a:ac:a0:de:l6
2021.02.06 173440,1.0,24.0,36.114053657657664,-8.14810792882883,-37.313513027027035,-0.38045242486486486,1.0274027390990992,9.949807959459458,0.004787731008558558,-0.0003240447580540534,-0.0016607882962522526,-0.10283890497442835,0.03825261753455202,-1.6890745034088959,1007.4593124324322,-88.0,-90.0,-66.0,-65.0,-80.0,-85.0,-79.0,-88.0,-84.0,-90.0,-68.0,-88.0,-75.0,-59.0,-62.0,-78.0,-87.0,-93.0,-78.0,-70.0,-85.0,-70.0,-81.0,-54.0,-64.0,-71.0,-80.0,-73.0,-72.0,-51.0,-56.0,-77.0,-87.0,-38.0,-45.0,-62.0,-70.0,-59.0,-71.0,-77.0,-75.0,-69.0,-86.0,-70.0,-80.0,-54.0,-64.0,-71.0,-80.0,-73.0,-73.0,-51.0,-56.0,-78.0,-87.0,-39.0,-45.0,-63.0,-70.0,-59.0,-71.0,-82.0,-100.0,-100.0,-100.0,-100.0,-100.0,-100.0,-100.0,-100.0,-100.0,-100.0,-100.0,-100.0,-100.0,-100.0,-100.0,-100.0,-100.0,-100.0,-100.0,-100.0,-100.0,-100.0,-100.0,-100.0,-100.0,-100.0,-100.0,-100.0,-100.0,-100.0,-100.0,-100.0,-100.0,-100.0,-100.0,-100.0,-100.0,-100.0,-100.0,-100.0,-100.0,-100.0,-100.0,-100.0,-100.0,-100.0,-100.0,-100.0,-100.0,-100.0,-100.0,-100.0,-100.0,-100.0,-100.0,-100.0,-100.0,-100.0,-100.0,-100.0,-100.0,-100.0,-100.0,-100.0,-100.0,-100.0,-100.0,-100.0,-100.0,-100.0,-100.0,-100.0,-100.0,-100.0,-100.0,-100.0,-100.0,-100.0,-100.0,-100.0,-100.0,-100.0,-100.0,-100.0,-100.0,-100.0,-100.0,-100.0,-100.0,-100.0,-100.0,-100.0,-100.0,-100.0,-100.0,-100.0,-100.0,-100.0,-100.0,-100.0,-100.0,-100.0,-100.0,-100.0,-100.0,-100.0,-100.0,-100.0,-100.0,-100.0,-100.0,-100.0
2021.02.06 173456,2.0,24.0,36.47517800892857,-7.458214143749999,-33.10767788392857,-0.2658713909196429,0.9604034852678572,9.96911895982143,-0.00036438111991071443,-0.0005669265320357137,-0.0027966283770357145,-0.09602903973843367,0.026676729442052762,-1.6866902144891875,1007.4575007142857,-89.0,-91.0,-65.0,-63.0,-81.0,-86.0,-76.0,-100.0,-84.0,-84.0,-71.0,-89.0,-79.0,-55.0,-66.0,-80.0,-90.0,-91.0,-79.0,-73.0,-87.0,-73.0,-83.0,-52.0,-61.0,-69.0,-82.0,-73.0,-76.0,-48.0,-56.0,-79.0,-87.0,-42.0,-45.0,-64.0,-72.0,-56.0,-76.0,-80.0,-79.0,-72.0,-87.0,-73.0,-83.0,-51.0,-62.0,-68.0,-82.0,-72.0,-76.0,-49.0,-56.0,-78.0,-88.0,-40.0,-45.0,-64.0,-72.0,-59.0,-76.0,-86.0,-91.0,-81.0,-75.0,-93.0,-91.0,-89.0,-93.0,-90.0,-89.0,-92.0,-84.0,-82.0,-100.0,-100.0,-100.0,-100.0,-100.0,-100.0,-100.0,-100.0,-100.0,-100.0,-100.0,-100.0,-100.0,-100.0,-100.0,-100.0,-100.0,-100.0,-100.0,-100.0,-100.0,-100.0,-100.0,-100.0,-100.0,-100.0,-100.0,-100.0,-100.0,-100.0,-100.0,-100.0,-100.0,-100.0,-100.0,-100.0,-100.0,-100.0,-100.0,-100.0,-100.0,-100.0,-100.0,-100.0,-100.0,-100.0,-100.0,-100.0,-100.0,-100.0,-100.0,-100.0,-100.0,-100.0,-100.0,-100.0,-100.0,-100.0,-100.0,-100.0,-100.0,-100.0,-100.0,-100.0,-100.0,-100.0,-100.0,-100.0,-100.0,-100.0,-100.0,-100.0,-100.0,-100.0,-100.0,-100.0,-100.0,-100.0,-100.0,-100.0,-100.0,-100.0,-100.0,-100.0,-100.0,-100.0,-100.0,-100.0,-100.0,-100.0,-100.0,-100.0,-100.0,-100.0,-100.0,-100.0,-100.0,-100.0,-100.0,-100.0
2021.02.06 173507,3.0,24.0,39.42864808108108,-9.40648624144144,-32.43783732432432,-0.34365393036036046,0.9904316772972973,9.946486184684687,0.004259414550900902,-0.0016228212175135137,-0.0022331307202342345,-0.09919404339145967,0.03454360886065806,-1.726402535094871,1007.4671975675676,-88.0,-91.0,-68.0,-58.0,-71.0,-89.0,-74.0,-100.0,-86.0,-85.0,-76.0,-100.0,-78.0,-56.0,-68.0,-78.0,-100.0,-100.0,-74.0,-73.0,-86.0,-68.0,-82.0,-48.0,-52.0,-71.0,-80.0,-70.0,-73.0,-47.0,-55.0,-100.0,-87.0,-41.0,-40.0,-58.0,-66.0,-60.0,-72.0,-76.0,-78.0,-72.0,-86.0,-67.0,-82.0,-49.0,-52.0,-70.0,-80.0,-71.0,-73.0,-46.0,-55.0,-100.0,-87.0,-41.0,-40.0,-58.0,-66.0,-60.0,-73.0,-83.0,-100.0,-77.0,-100.0,-100.0,-100.0,-88.0,-100.0,-100.0,-90.0,-89.0,-78.0,-80.0,-89.0,-83.0,-89.0,-100.0,-100.0,-100.0,-100.0,-100.0,-100.0,-100.0,-100.0,-100.0,-100.0,-100.0,-100.0,-100.0,-100.0,-100.0,-100.0,-100.0,-100.0,-100.0,-100.0,-100.0,-100.0,-100.0,-100.0,-100.0,-100.0,-100.0,-100.0,-100.0,-100.0,-100.0,-100.0,-100.0,-100.0,-100.0,-100.0,-100.0,-100.0,-100.0,-100.0,-100.0,-100.0,-100.0,-100.0,-100.0,-100.0,-100.0,-100.0,-100.0,-100.0,-100.0,-100.0,-100.0,-100.0,-100.0,-100.0,-100.0,-100.0,-100.0,-100.0,-100.0,-100.0,-100.0,-100.0,-100.0,-100.0,-100.0,-100.0,-100.0,-100.0,-100.0,-100.0,-100.0,-100.0,-100.0,-100.0,-100.0,-100.0,-100.0,-100.0,-100.0,-100.0,-100.0,-100.0,-100.0,-100.0,-100.0,-100.0,-100.0,-100.0,-100.0,-100.0,-100.0,-100.0,-100.0,-100.0,-100.0
2021.02.06 173517,4.0,24.0,36.88460138053098,-12.105663455752213,-29.39415890265487,-0.3210447068141593,0.967965049823009,9.959907761061945,0.004867503984867256,-0.002627293457309734,-0.0057071193180000005,-0.09685075922613647,0.03221483156497099,-1.8185407197580927,1007.468343539823,-91.0,-88.0,-64.0,-57.0,-77.0,-82.0,-77.0,-100.0,-82.0,-88.0,-74.0,-87.0,-74.0,-58.0,-64.0,-74.0,-83.0,-100.0,-77.0,-76.0,-88.0,-67.0,-86.0,-47.0,-51.0,-61.0,-81.0,-67.0,-77.0,-45.0,-55.0,-75.0,-100.0,-42.0,-44.0,-57.0,-65.0,-66.0,-73.0,-77.0,-82.0,-75.0,-88.0,-67.0,-86.0,-47.0,-51.0,-62.0,-82.0,-67.0,-76.0,-45.0,-55.0,-100.0,-100.0,-42.0,-44.0,-58.0,-65.0,-62.0,-73.0,-100.0,-100.0,-76.0,-100.0,-100.0,-100.0,-89.0,-100.0,-100.0,-100.0,-100.0,-83.0,-83.0,-100.0,-87.0,-83.0,-93.0,-83.0,-100.0,-100.0,-100.0,-100.0,-100.0,-100.0,-100.0,-100.0,-100.0,-100.0,-100.0,-100.0,-100.0,-100.0,-100.0,-100.0,-100.0,-100.0,-100.0,-100.0,-100.0,-100.0,-100.0,-100.0,-100.0,-100.0,-100.0,-100.0,-100.0,-100.0,-100.0,-100.0,-100.0,-100.0,-100.0,-100.0,-100.0,-100.0,-100.0,-100.0,-100.0,-100.0,-100.0,-100.0,-100.0,-100.0,-100.0,-100.0,-100.0,-100.0,-100.0,-100.0,-100.0,-100.0,-100.0,-100.0,-100.0,-100.0,-100.0,-100.0,-100.0,-100.0,-100.0,-100.0,-100.0,-100.0,-100.0,-100.0,-100.0,-100.0,-100.0,-100.0,-100.0,-100.0,-100.0,-100.0,-100.0,-100.0,-100.0,-100.0,-100.0,-100.0,-100.0,-100.0,-100.0,-100.0,-100.0,-100.0,-100.0,-100.0,-100.0,-100.0,-100.0,-100.0,-100.0
2021.02.06 173527,5.0,24.0,32.75464230357143,-16.482857,-28.326428285714286,-0.3183316609107143,0.6704397026785714,9.987353928571428,-0.0014006702505357145,-0.001472316221607143,0.0002849687258392859,-0.06702734207335323,0.03187145921401675,-1.997979359967368,1007.4708698214287,-90.0,-90.0,-68.0,-59.0,-72.0,-100.0,-72.0,-100.0,-82.0,-84.0,-69.0,-87.0,-69.0,-62.0,-61.0,-75.0,-87.0,-100.0,-78.0,-78.0,-84.0,-63.0,-84.0,-50.0,-60.0,0.0,-75.0,-67.0,-79.0,-50.0,-56.0,-78.0,-88.0,-38.0,-36.0,-57.0,-67.0,0.0,-79.0,-77.0,-77.0,-79.0,-85.0,-61.0,-84.0,-50.0,-60.0,0.0,-77.0,-67.0,-79.0,-49.0,-56.0,-78.0,-88.0,-37.0,-36.0,-56.0,-67.0,0.0,-79.0,-87.0,-100.0,-72.0,-100.0,-100.0,-100.0,-100.0,-100.0,-100.0,-90.0,-87.0,-83.0,-77.0,-86.0,-100.0,-100.0,-100.0,-78.0,-75.0,-92.0,-89.0,-92.0,-100.0,-100.0,-100.0,-100.0,-100.0,-100.0,-100.0,-100.0,-100.0,-100.0,-100.0,-100.0,-100.0,-100.0,-100.0,-100.0,-100.0,-100.0,-100.0,-100.0,-100.0,-100.0,-100.0,-100.0,-100.0,-100.0,-100.0,-100.0,-100.0,-100.0,-100.0,-100.0,-100.0,-100.0,-100.0,-100.0,-100.0,-100.0,-100.0,-100.0,-100.0,-100.0,-100.0,-100.0,-100.0,-100.0,-100.0,-100.0,-100.0,-100.0,-100.0,-100.0,-100.0,-100.0,-100.0,-100.0,-100.0,-100.0,-100.0,-100.0,-100.0,-100.0,-100.0,-100.0,-100.0,-100.0,-100.0,-100.0,-100.0,-100.0,-100.0,-100.0,-100.0,-100.0,-100.0,-100.0,-100.0,-100.0,-100.0,-100.0,-100.0,-100.0,-100.0,-100.0,-100.0,-100.0,-100.0,-100.0,-100.0,-100.0,-100.0
2021.02.06 173537,6.0,24.0,30.476841692982454,-17.178420824561403,-27.962631122807014,-0.27750485034210526,0.9972994719298245,9.954701530701753,0.0011982818546491243,-0.004265704035754386,-0.005833730977789473,-0.09981572392739745,0.0279814191611908,-2.0176952878634133,1007.4728100877193,-84.0,-84.0,-65.0,-49.0,-58.0,-100.0,-74.0,-100.0,-83.0,-84.0,-71.0,-88.0,-70.0,-71.0,-57.0,-64.0,-85.0,-88.0,-79.0,-70.0,-84.0,-63.0,-77.0,-49.0,-59.0,-61.0,-75.0,-66.0,-81.0,-56.0,-64.0,-78.0,-86.0,-32.0,-34.0,-58.0,-67.0,-65.0,-76.0,-80.0,-71.0,-71.0,-86.0,-65.0,-77.0,-49.0,-59.0,-59.0,-75.0,-66.0,-81.0,-57.0,-64.0,-77.0,-87.0,-33.0,-35.0,-61.0,-67.0,-64.0,-77.0,-77.0,-100.0,-67.0,-88.0,-100.0,-89.0,-89.0,-100.0,-100.0,-100.0,-90.0,-87.0,-70.0,-84.0,-89.0,-100.0,-100.0,-77.0,-79.0,-100.0,-88.0,-92.0,-87.0,-89.0,-93.0,-100.0,-100.0,-100.0,-100.0,-100.0,-100.0,-100.0,-100.0,-100.0,-100.0,-100.0,-100.0,-100.0,-100.0,-100.0,-100.0,-100.0,-100.0,-100.0,-100.0,-100.0,-100.0,-100.0,-100.0,-100.0,-100.0,-100.0,-100.0,-100.0,-100.0,-100.0,-100.0,-100.0,-100.0,-100.0,-100.0,-100.0,-100.0,-100.0,-100.0,-100.0,-100.0,-100.0,-100.0,-100.0,-100.0,-100.0,-100.0,-100.0,-100.0,-100.0,-100.0,-100.0,-100.0,-100.0,-100.0,-100.0,-100.0,-100.0,-100.0,-100.0,-100.0,-100.0,-100.0,-100.0,-100.0,-100.0,-100.0,-100.0,-100.0,-100.0,-100.0,-100.0,-100.0,-100.0,-100.0,-100.0,-100.0,-100.0,-100.0,-100.0,-100.0,-100.0,-100.0,-100.0,-100.0,-100.0,-100.0
2021.02.06 173548,7.0,24.0,29.683683780701752,-13.622104995614034,-29.563683903508764,-0.34074310885964915,1.0136813463157894,9.95033303508772,0.0003570024942105268,-0.0009005867853684207,-0.006814330425438595,-0.10147704373587639,0.03422939025780606,-1.9201964422276145,1007.4742370175438,-100.0,-90.0,-64.0,-58.0,-68.0,-100.0,-74.0,-100.0,-100.0,-100.0,-65.0,-100.0,-70.0,-65.0,-57.0,-71.0,-100.0,-89.0,-77.0,-73.0,-88.0,-67.0,-80.0,-49.0,-61.0,-61.0,-75.0,-65.0,-79.0,-56.0,-65.0,-77.0,-100.0,-33.0,-40.0,-60.0,-63.0,-65.0,-74.0,-75.0,-75.0,-72.0,-88.0,-66.0,-80.0,-48.0,-61.0,-61.0,-75.0,-65.0,-79.0,-59.0,-65.0,-100.0,-100.0,-34.0,-41.0,-61.0,-63.0,-62.0,-74.0,-78.0,-100.0,-73.0,-85.0,-83.0,-90.0,-100.0,-88.0,-100.0,-87.0,-100.0,-79.0,-75.0,-100.0,-82.0,-100.0,-100.0,-100.0,-100.0,-100.0,-85.0,-100.0,-100.0,-89.0,-100.0,-100.0,-100.0,-100.0,-100.0,-100.0,-100.0,-100.0,-100.0,-100.0,-100.0,-100.0,-100.0,-100.0,-100.0,-100.0,-100.0,-100.0,-100.0,-100.0,-100.0,-100.0,-100.0,-100.0,-100.0,-100.0,-100.0,-100.0,-100.0,-100.0,-100.0,-100.0,-100.0,-100.0,-100.0,-100.0,-100.0,-100.0,-100.0,-100.0,-100.0,-100.0,-100.0,-100.0,-100.0,-100.0,-100.0,-100.0,-100.0,-100.0,-100.0,-100.0,-100.0,-100.0,-100.0,-100.0,-100.0,-100.0,-100.0,-100.0,-100.0,-100.0,-100.0,-100.0,-100.0,-100.0,-100.0,-100.0,-100.0,-100.0,-100.0,-100.0,-100.0,-100.0,-100.0,-100.0,-100.0,-100.0,-100.0,-100.0,-100.0,-100.0,-100.0,-100.0,-100.0,-100.0,-100.0,-100.0,-100.0
2021.02.06 173558,8.0,24.0,28.53132713274336,-10.361415699115044,-31.76761025663717,-0.3510261130973451,0.8467681285840709,9.974506433628317,0.002564596129292036,-0.002973270311292035,-0.004182659238371682,-0.08466527887941458,0.035212461622349416,-1.8394617591284017,1007.4789372566371,-89.0,-74.0,-100.0,-54.0,-69.0,-74.0,-70.0,-100.0,-80.0,-83.0,-68.0,-100.0,-70.0,-65.0,-52.0,-70.0,-87.0,-100.0,-81.0,-73.0,-86.0,-65.0,-82.0,-49.0,-60.0,-59.0,-76.0,-65.0,-79.0,-62.0,-68.0,-84.0,-89.0,-42.0,-45.0,-62.0,-67.0,-67.0,-74.0,-79.0,-72.0,-75.0,-87.0,-65.0,-82.0,-49.0,-60.0,-60.0,-75.0,-63.0,-79.0,-60.0,-69.0,-85.0,-100.0,-42.0,-45.0,-63.0,-67.0,-68.0,-74.0,-76.0,-100.0,-69.0,-100.0,-74.0,-100.0,-90.0,-100.0,-92.0,-100.0,-100.0,-82.0,-71.0,-100.0,-81.0,-81.0,-100.0,-78.0,-100.0,-100.0,-89.0,-100.0,-92.0,-100.0,-95.0,-87.0,-90.0,-100.0,-100.0,-100.0,-100.0,-100.0,-100.0,-100.0,-100.0,-100.0,-100.0,-100.0,-100.0,-100.0,-100.0,-100.0,-100.0,-100.0,-100.0,-100.0,-100.0,-100.0,-100.0,-100.0,-100.0,-100.0,-100.0,-100.0,-100.0,-100.0,-100.0,-100.0,-100.0,-100.0,-100.0,-100.0,-100.0,-100.0,-100.0,-100.0,-100.0,-100.0,-100.0,-100.0,-100.0,-100.0,-100.0,-100.0,-100.0,-100.0,-100.0,-100.0,-100.0,-100.0,-100.0,-100.0,-100.0,-100.0,-100.0,-100.0,-100.0,-100.0,-100.0,-100.0,-100.0,-100.0,-100.0,-100.0,-100.0,-100.0,-100.0,-100.0,-100.0,-100.0,-100.0,-100.0,-100.0,-100.0,-100.0,-100.0,-100.0,-100.0,-100.0,-100.0,-100.0,-100.0,-100.0
2021.02.06 173608,9.0,24.0,26.834999551724135,-8.154310154310345,-34.00603396551725,-0.2519767827275862,0.9424154625000002,9.969306185344827,0.0048187578920689655,0.0007889009092068969,-0.00652802198539655,-0.09426229771483557,0.025294479276735997,-1.7550823236333912,1007.4779812931033,-91.0,-87.0,-64.0,-53.0,-72.0,-79.0,-72.0,-100.0,-81.0,-84.0,-64.0,-84.0,-67.0,-64.0,-61.0,-71.0,-100.0,-86.0,-100.0,-67.0,-87.0,-61.0,-79.0,-48.0,-54.0,-61.0,-73.0,-63.0,-76.0,-59.0,-70.0,-79.0,-88.0,-47.0,-52.0,-59.0,-62.0,-66.0,-72.0,-100.0,-65.0,-66.0,-88.0,-61.0,-79.0,-48.0,-54.0,-61.0,-70.0,-65.0,-76.0,-60.0,-70.0,-81.0,-88.0,-47.0,-52.0,-59.0,-62.0,-67.0,-72.0,-76.0,-100.0,-71.0,-100.0,-100.0,-92.0,-100.0,-100.0,-100.0,-100.0,-81.0,-70.0,-65.0,-100.0,-80.0,-83.0,-89.0,-78.0,-100.0,-100.0,-100.0,-100.0,-100.0,-100.0,-90.0,-88.0,-85.0,-86.0,-100.0,-100.0,-100.0,-100.0,-100.0,-100.0,-100.0,-100.0,-100.0,-100.0,-100.0,-100.0,-100.0,-100.0,-100.0,-100.0,-100.0,-100.0,-100.0,-100.0,-100.0,-100.0,-100.0,-100.0,-100.0,-100.0,-100.0,-100.0,-100.0,-100.0,-100.0,-100.0,-100.0,-100.0,-100.0,-100.0,-100.0,-100.0,-100.0,-100.0,-100.0,-100.0,-100.0,-100.0,-100.0,-100.0,-100.0,-100.0,-100.0,-100.0,-100.0,-100.0,-100.0,-100.0,-100.0,-100.0,-100.0,-100.0,-100.0,-100.0,-100.0,-100.0,-100.0,-100.0,-100.0,-100.0,-100.0,-100.0,-100.0,-100.0,-100.0,-100.0,-100.0,-100.0,-100.0,-100.0,-100.0,-100.0,-100.0,-100.0,-100.0,-100.0,-100.0,-100.0,-100.0
2021.02.06 173618,10.0,24.0,25.916315543859646,-7.081052514912281,-36.1010522631579,-0.24272485947368422,0.9344182486842105,9.966252868421051,0.0030683868138596496,-0.0016775645095438601,-0.004092229211561403,-0.09349126238049119,0.024397460269954076,-1.7136509878593578,1007.4807867543859,-100.0,-91.0,-62.0,-57.0,-72.0,-77.0,-71.0,-100.0,-84.0,-82.0,-64.0,-87.0,-63.0,-70.0,-57.0,-79.0,-87.0,-87.0,-81.0,-72.0,-88.0,-59.0,-85.0,-50.0,-51.0,-56.0,-71.0,-67.0,-77.0,-64.0,-74.0,-79.0,-87.0,-44.0,-62.0,-59.0,-64.0,-63.0,-72.0,-81.0,-73.0,-72.0,-88.0,-63.0,-85.0,-50.0,-51.0,-57.0,-70.0,-67.0,-78.0,-63.0,-74.0,-78.0,-86.0,-44.0,-62.0,-60.0,-64.0,-63.0,-72.0,-74.0,-100.0,-71.0,-100.0,-100.0,-100.0,-100.0,-100.0,-100.0,-100.0,-79.0,-72.0,-68.0,-88.0,-87.0,-83.0,-100.0,-100.0,-75.0,-100.0,-100.0,-100.0,-100.0,-100.0,-93.0,-100.0,-100.0,-100.0,-89.0,-100.0,-100.0,-100.0,-100.0,-100.0,-100.0,-100.0,-100.0,-100.0,-100.0,-100.0,-100.0,-100.0,-100.0,-100.0,-100.0,-100.0,-100.0,-100.0,-100.0,-100.0,-100.0,-100.0,-100.0,-100.0,-100.0,-100.0,-100.0,-100.0,-100.0,-100.0,-100.0,-100.0,-100.0,-100.0,-100.0,-100.0,-100.0,-100.0,-100.0,-100.0,-100.0,-100.0,-100.0,-100.0,-100.0,-100.0,-100.0,-100.0,-100.0,-100.0,-100.0,-100.0,-100.0,-100.0,-100.0,-100.0,-100.0,-100.0,-100.0,-100.0,-100.0,-100.0,-100.0,-100.0,-100.0,-100.0,-100.0,-100.0,-100.0,-100.0,-100.0,-100.0,-100.0,-100.0,-100.0,-100.0,-100.0,-100.0,-100.0,-100.0,-100.0,-100.0,-100.0
2021.02.06 173639,11.0,24.0,25.842856875000003,-7.161428469642857,-37.324821008928566,-0.17604333078214282,1.0271866475892857,9.945710665178572,0.0022699752518750005,-0.0024049764294642854,-0.0022184881468750007,-0.10292278416454789,0.017727117513069407,-1.697700671851635,1007.4887414285714,-100.0,-100.0,-68.0,-49.0,-66.0,-76.0,-67.0,-100.0,-76.0,-100.0,-64.0,-87.0,-65.0,-75.0,-68.0,-76.0,-82.0,-88.0,-77.0,-71.0,-86.0,-70.0,-100.0,-45.0,-54.0,-54.0,-70.0,-71.0,-77.0,-69.0,-73.0,-100.0,-88.0,-48.0,-55.0,-66.0,-62.0,-62.0,-78.0,-80.0,-73.0,-70.0,-88.0,-70.0,-100.0,-47.0,-54.0,-54.0,-70.0,-69.0,-77.0,-69.0,-74.0,-100.0,-88.0,-47.0,-55.0,-67.0,-62.0,-62.0,-78.0,-69.0,-100.0,-74.0,-100.0,-100.0,-100.0,-100.0,-85.0,-100.0,-100.0,-78.0,-100.0,-73.0,-86.0,-100.0,-80.0,-100.0,-100.0,-73.0,-100.0,-83.0,-100.0,-100.0,-100.0,-100.0,-89.0,-100.0,-100.0,-100.0,-93.0,-89.0,-90.0,-100.0,-100.0,-100.0,-100.0,-100.0,-100.0,-100.0,-100.0,-100.0,-100.0,-100.0,-100.0,-100.0,-100.0,-100.0,-100.0,-100.0,-100.0,-100.0,-100.0,-100.0,-100.0,-100.0,-100.0,-100.0,-100.0,-100.0,-100.0,-100.0,-100.0,-100.0,-100.0,-100.0,-100.0,-100.0,-100.0,-100.0,-100.0,-100.0,-100.0,-100.0,-100.0,-100.0,-100.0,-100.0,-100.0,-100.0,-100.0,-100.0,-100.0,-100.0,-100.0,-100.0,-100.0,-100.0,-100.0,-100.0,-100.0,-100.0,-100.0,-100.0,-100.0,-100.0,-100.0,-100.0,-100.0,-100.0,-100.0,-100.0,-100.0,-100.0,-100.0,-100.0,-100.0,-100.0,-100.0,-100.0,-100.0,-100.0,-100.0,-100.0
2021.02.06 173649,12.0,24.0,26.70477842477876,-8.0792918539823,-38.336813575221235,-0.2541745179646018,0.8282283869911506,9.971921415929202,0.002586219563982301,-3.246767118584069e-05,-0.0038853353684601766,-0.0828697885164117,0.025506717573224928,-1.755845306193934,1007.487332920354,-100.0,-86.0,-68.0,-55.0,-68.0,-77.0,-66.0,-100.0,-75.0,-79.0,-61.0,-83.0,-62.0,-100.0,-64.0,-80.0,-80.0,-90.0,-73.0,-70.0,-86.0,-67.0,-86.0,-46.0,-55.0,-57.0,-74.0,-69.0,-78.0,-69.0,-77.0,-100.0,-88.0,-53.0,-58.0,-63.0,-59.0,-62.0,-75.0,-78.0,-74.0,-72.0,-86.0,-67.0,-87.0,-45.0,-55.0,-58.0,-73.0,-72.0,-79.0,-68.0,-77.0,-84.0,-87.0,-53.0,-58.0,-64.0,-59.0,-64.0,-75.0,-82.0,-100.0,-100.0,-100.0,-100.0,-86.0,-100.0,-87.0,-86.0,-100.0,-76.0,-74.0,-74.0,-88.0,-100.0,-81.0,-100.0,-76.0,-100.0,-100.0,-100.0,-100.0,-91.0,-87.0,-88.0,-91.0,-100.0,-89.0,-100.0,-100.0,-100.0,-100.0,-83.0,-100.0,-100.0,-100.0,-100.0,-100.0,-100.0,-100.0,-100.0,-100.0,-100.0,-100.0,-100.0,-100.0,-100.0,-100.0,-100.0,-100.0,-100.0,-100.0,-100.0,-100.0,-100.0,-100.0,-100.0,-100.0,-100.0,-100.0,-100.0,-100.0,-100.0,-100.0,-100.0,-100.0,-100.0,-100.0,-100.0,-100.0,-100.0,-100.0,-100.0,-100.0,-100.0,-100.0,-100.0,-100.0,-100.0,-100.0,-100.0,-100.0,-100.0,-100.0,-100.0,-100.0,-100.0,-100.0,-100.0,-100.0,-100.0,-100.0,-100.0,-100.0,-100.0,-100.0,-100.0,-100.0,-100.0,-100.0,-100.0,-100.0,-100.0,-100.0,-100.0,-100.0,-100.0,-100.0,-100.0,-100.0,-100.0,-100.0,-100.0
2021.02.06 173700,13.0,24.0,27.12521700869565,-7.745217251304349,-37.88452109565219,-0.2939961265217391,0.7942330006086957,9.970634726086956,-0.0026408498676521747,-0.0006806101976695657,-0.00561286887653913,-0.07951374637043991,0.029510518139147193,-1.746595631475034,1007.4904902608697,-100.0,-88.0,-73.0,-55.0,-69.0,-74.0,-66.0,-100.0,-78.0,-86.0,-63.0,-80.0,-63.0,-100.0,-65.0,-80.0,-79.0,-88.0,-80.0,-62.0,-82.0,-70.0,-86.0,-48.0,-46.0,-59.0,-66.0,-69.0,-73.0,-100.0,-80.0,-77.0,-84.0,-53.0,-58.0,-58.0,-62.0,-59.0,-78.0,-80.0,-68.0,-65.0,-82.0,-73.0,-85.0,-49.0,-46.0,-60.0,-67.0,-69.0,-73.0,-67.0,-81.0,-77.0,-84.0,-56.0,-58.0,-58.0,-62.0,-55.0,-78.0,-78.0,-100.0,-72.0,-100.0,-100.0,-86.0,-89.0,-82.0,-100.0,-100.0,-75.0,-66.0,-67.0,-100.0,-100.0,-71.0,-100.0,-72.0,-71.0,-100.0,-87.0,-100.0,-100.0,-100.0,-100.0,-100.0,-100.0,-87.0,-100.0,-89.0,-89.0,-100.0,-83.0,-93.0,-86.0,-89.0,-100.0,-100.0,-100.0,-100.0,-100.0,-100.0,-100.0,-100.0,-100.0,-100.0,-100.0,-100.0,-100.0,-100.0,-100.0,-100.0,-100.0,-100.0,-100.0,-100.0,-100.0,-100.0,-100.0,-100.0,-100.0,-100.0,-100.0,-100.0,-100.0,-100.0,-100.0,-100.0,-100.0,-100.0,-100.0,-100.0,-100.0,-100.0,-100.0,-100.0,-100.0,-100.0,-100.0,-100.0,-100.0,-100.0,-100.0,-100.0,-100.0,-100.0,-100.0,-100.0,-100.0,-100.0,-100.0,-100.0,-100.0,-100.0,-100.0,-100.0,-100.0,-100.0,-100.0,-100.0,-100.0,-100.0,-100.0,-100.0,-100.0,-100.0,-100.0,-100.0,-100.0,-100.0,-100.0,-100.0,-100.0
2021.02.06 173711,14.0,24.0,28.408672247787614,-5.483362731858407,-35.394159008849556,-0.36005231646017694,0.6049887475221238,9.983998902654868,-0.002333137928938052,-0.0031624761415929206,-0.004128600430513273,-0.0605532029660138,0.03608350418672884,-1.6902031117835932,1007.4936064601769,-88.0,-82.0,-78.0,-50.0,-66.0,-70.0,-61.0,-86.0,-78.0,-86.0,-63.0,-78.0,-61.0,-76.0,-68.0,-79.0,-100.0,-88.0,-83.0,-71.0,-86.0,-68.0,-88.0,-42.0,-51.0,-54.0,-65.0,-70.0,-74.0,-73.0,-80.0,-78.0,-87.0,-50.0,-64.0,-60.0,-64.0,-57.0,-78.0,-82.0,-63.0,-69.0,-87.0,-71.0,-87.0,-42.0,-51.0,-58.0,-66.0,-69.0,-74.0,-74.0,-80.0,-76.0,-87.0,-52.0,-64.0,-59.0,-64.0,-58.0,-78.0,-80.0,-100.0,-73.0,-77.0,-100.0,-88.0,-100.0,-100.0,-85.0,-100.0,-78.0,-71.0,-63.0,-86.0,-88.0,-71.0,-94.0,-71.0,-72.0,-91.0,-87.0,-100.0,-89.0,-86.0,-89.0,-85.0,-100.0,-100.0,-100.0,-89.0,-91.0,-100.0,-80.0,-100.0,-100.0,-100.0,-91.0,-100.0,-100.0,-100.0,-100.0,-100.0,-100.0,-100.0,-100.0,-100.0,-100.0,-100.0,-100.0,-100.0,-100.0,-100.0,-100.0,-100.0,-100.0,-100.0,-100.0,-100.0,-100.0,-100.0,-100.0,-100.0,-100.0,-100.0,-100.0,-100.0,-100.0,-100.0,-100.0,-100.0,-100.0,-100.0,-100.0,-100.0,-100.0,-100.0,-100.0,-100.0,-100.0,-100.0,-100.0,-100.0,-100.0,-100.0,-100.0,-100.0,-100.0,-100.0,-100.0,-100.0,-100.0,-100.0,-100.0,-100.0,-100.0,-100.0,-100.0,-100.0,-100.0,-100.0,-100.0,-100.0,-100.0,-100.0,-100.0,-100.0,-100.0,-100.0,-100.0,-100.0,-100.0,-100.0,-100.0
2021.02.06 173721,15.0,24.0,28.47160678571429,-5.386071360714285,-32.75571382142858,-0.4116870040178572,0.695600961875,9.96884105357143,-0.0008279842579464287,-0.0003760312524642854,-0.004231070908267858,-0.06963425422353399,0.04128570151182685,-1.6804531940392085,1007.4917861607145,-88.0,-86.0,-100.0,-59.0,-65.0,-73.0,-61.0,-86.0,-77.0,-100.0,-65.0,-100.0,-56.0,-81.0,-70.0,-82.0,-71.0,-92.0,-77.0,-69.0,-83.0,-72.0,-87.0,-42.0,-45.0,-51.0,-66.0,-66.0,-73.0,-62.0,-79.0,-74.0,-86.0,-56.0,-66.0,-57.0,-63.0,-60.0,-81.0,-76.0,-66.0,-68.0,-82.0,-70.0,-87.0,-41.0,-45.0,-50.0,-67.0,-67.0,-73.0,-100.0,-79.0,-74.0,-87.0,-55.0,-66.0,-57.0,-64.0,-59.0,-81.0,-86.0,-100.0,-67.0,-75.0,-100.0,-85.0,-100.0,-79.0,-87.0,-100.0,-68.0,-60.0,-100.0,-100.0,-100.0,-69.0,-100.0,-100.0,-71.0,-100.0,-100.0,-100.0,-100.0,-100.0,-84.0,-100.0,-100.0,-90.0,-85.0,-91.0,-87.0,-87.0,-87.0,-100.0,-100.0,-85.0,-100.0,-88.0,-91.0,-97.0,-100.0,-100.0,-100.0,-100.0,-100.0,-100.0,-100.0,-100.0,-100.0,-100.0,-100.0,-100.0,-100.0,-100.0,-100.0,-100.0,-100.0,-100.0,-100.0,-100.0,-100.0,-100.0,-100.0,-100.0,-100.0,-100.0,-100.0,-100.0,-100.0,-100.0,-100.0,-100.0,-100.0,-100.0,-100.0,-100.0,-100.0,-100.0,-100.0,-100.0,-100.0,-100.0,-100.0,-100.0,-100.0,-100.0,-100.0,-100.0,-100.0,-100.0,-100.0,-100.0,-100.0,-100.0,-100.0,-100.0,-100.0,-100.0,-100.0,-100.0,-100.0,-100.0,-100.0,-100.0,-100.0,-100.0,-100.0,-100.0,-100.0,-100.0,-100.0,-100.0,-100.0
2021.02.06 173731,16.0,24.0,27.043783306306313,-5.848108014414413,-30.40216172072072,-0.4480097991891892,0.7024931682882883,9.98669276576577,-0.0025041290746846846,-0.0006762552390270269,-0.0028605058263423424,-0.07019962665733986,0.04484861002614097,-1.7100064357121785,1007.4983654054054,-87.0,-83.0,-100.0,-53.0,-68.0,-62.0,-57.0,-82.0,-80.0,-100.0,-69.0,-72.0,-57.0,-100.0,-77.0,-100.0,-83.0,-100.0,-100.0,-65.0,-84.0,-74.0,-100.0,-43.0,-49.0,-54.0,-60.0,-64.0,-72.0,-64.0,-85.0,-80.0,-83.0,-57.0,-64.0,-55.0,-54.0,-61.0,-76.0,-100.0,-65.0,-69.0,-87.0,-75.0,-100.0,-43.0,-49.0,-54.0,-60.0,-65.0,-72.0,-66.0,-85.0,-100.0,-84.0,-59.0,-64.0,-55.0,-55.0,-61.0,-76.0,-100.0,-100.0,-71.0,-100.0,-100.0,-100.0,-100.0,-83.0,-100.0,-100.0,-65.0,-100.0,-65.0,-82.0,-100.0,-77.0,-100.0,-72.0,-67.0,-90.0,-100.0,-100.0,-100.0,-100.0,-82.0,-83.0,-100.0,-100.0,-90.0,-85.0,-86.0,-86.0,-100.0,-100.0,-87.0,-100.0,-100.0,-88.0,-100.0,-100.0,-91.0,-100.0,-100.0,-100.0,-100.0,-100.0,-100.0,-100.0,-100.0,-100.0,-100.0,-100.0,-100.0,-100.0,-100.0,-100.0,-100.0,-100.0,-100.0,-100.0,-100.0,-100.0,-100.0,-100.0,-100.0,-100.0,-100.0,-100.0,-100.0,-100.0,-100.0,-100.0,-100.0,-100.0,-100.0,-100.0,-100.0,-100.0,-100.0,-100.0,-100.0,-100.0,-100.0,-100.0,-100.0,-100.0,-100.0,-100.0,-100.0,-100.0,-100.0,-100.0,-100.0,-100.0,-100.0,-100.0,-100.0,-100.0,-100.0,-100.0,-100.0,-100.0,-100.0,-100.0,-100.0,-100.0,-100.0,-100.0,-100.0,-100.0,-100.0,-100.0,-100.0
2021.02.06 173742,17.0,24.0,26.755220884955754,-3.9408849150442475,-31.580176486725666,-0.3606879646902655,0.5893306169911504,9.985206513274337,0.0014996363120353985,-0.0007136095741238937,-0.004171847470230089,-0.05894290563543282,0.03609754006271205,-1.6483691930770874,1007.493994159292,-86.0,-80.0,-100.0,-66.0,-77.0,-63.0,-54.0,-82.0,-70.0,-81.0,-72.0,-75.0,-56.0,-100.0,-100.0,-88.0,-70.0,-87.0,-76.0,-57.0,-84.0,-74.0,-100.0,-42.0,-41.0,-44.0,-58.0,-65.0,-72.0,-100.0,-80.0,-78.0,-85.0,-58.0,-73.0,-59.0,-53.0,-63.0,-80.0,-72.0,-58.0,-63.0,-84.0,-74.0,-100.0,-41.0,-42.0,-45.0,-58.0,-64.0,-72.0,-100.0,-80.0,-78.0,-84.0,-59.0,-73.0,-59.0,-53.0,-62.0,-79.0,-100.0,-100.0,-77.0,-76.0,-77.0,-78.0,-100.0,-81.0,-82.0,-100.0,-65.0,-64.0,-58.0,-92.0,-100.0,-71.0,-100.0,-73.0,-62.0,-91.0,-86.0,-91.0,-100.0,-87.0,-82.0,-79.0,-100.0,-100.0,-100.0,-85.0,-80.0,-80.0,-100.0,-86.0,-83.0,-83.0,-100.0,-88.0,-90.0,-100.0,-87.0,-89.0,-91.0,-100.0,-100.0,-100.0,-100.0,-100.0,-100.0,-100.0,-100.0,-100.0,-100.0,-100.0,-100.0,-100.0,-100.0,-100.0,-100.0,-100.0,-100.0,-100.0,-100.0,-100.0,-100.0,-100.0,-100.0,-100.0,-100.0,-100.0,-100.0,-100.0,-100.0,-100.0,-100.0,-100.0,-100.0,-100.0,-100.0,-100.0,-100.0,-100.0,-100.0,-100.0,-100.0,-100.0,-100.0,-100.0,-100.0,-100.0,-100.0,-100.0,-100.0,-100.0,-100.0,-100.0,-100.0,-100.0,-100.0,-100.0,-100.0,-100.0,-100.0,-100.0,-100.0,-100.0,-100.0,-100.0,-100.0,-100.0,-100.0,-100.0,-100.0
2021.02.06 173752,18.0,24.0,27.54421016666666,-3.0031578552631575,-32.05473643859649,-0.356788950877193,0.6674776081578947,9.98456702631579,-0.0015827625866666668,-0.002920728950385964,-0.005147847267105263,-0.06673511823541235,0.03574545379205227,-1.5999488328632556,1007.4974836842105,-87.0,-79.0,-84.0,-67.0,-77.0,-68.0,-52.0,-85.0,-73.0,-82.0,-71.0,-70.0,-54.0,-100.0,-83.0,-100.0,-74.0,-82.0,-78.0,-65.0,-84.0,-76.0,-100.0,-42.0,-45.0,-45.0,-64.0,-100.0,-69.0,-75.0,-82.0,-73.0,-83.0,-60.0,-73.0,-52.0,-63.0,-60.0,-70.0,-80.0,-59.0,-66.0,-83.0,-77.0,-100.0,-41.0,-45.0,-45.0,-64.0,-100.0,-69.0,-76.0,-82.0,-73.0,-82.0,-61.0,-73.0,-52.0,-64.0,-60.0,-70.0,-100.0,-100.0,-100.0,-78.0,-76.0,-82.0,-100.0,-78.0,-100.0,-100.0,-63.0,-66.0,-59.0,-100.0,-100.0,-69.0,-100.0,-65.0,-64.0,-100.0,-83.0,-92.0,-88.0,-84.0,-83.0,-100.0,-100.0,-82.0,-92.0,-87.0,-84.0,-85.0,-100.0,-100.0,-100.0,-100.0,-100.0,-100.0,-100.0,-100.0,-88.0,-100.0,-100.0,-100.0,-100.0,-100.0,-100.0,-100.0,-100.0,-100.0,-100.0,-100.0,-100.0,-100.0,-100.0,-100.0,-100.0,-100.0,-100.0,-100.0,-100.0,-100.0,-100.0,-100.0,-100.0,-100.0,-100.0,-100.0,-100.0,-100.0,-100.0,-100.0,-100.0,-100.0,-100.0,-100.0,-100.0,-100.0,-100.0,-100.0,-100.0,-100.0,-100.0,-100.0,-100.0,-100.0,-100.0,-100.0,-100.0,-100.0,-100.0,-100.0,-100.0,-100.0,-100.0,-100.0,-100.0,-100.0,-100.0,-100.0,-100.0,-100.0,-100.0,-100.0,-100.0,-100.0,-100.0,-100.0,-100.0,-100.0,-100.0,-100.0,-100.0
2021.02.06 173802,19.0,24.0,29.91299952857143,-2.621571385,-31.963713799999997,-0.24999649499999999,0.6709613118571429,9.985134928571428,-0.004414635802928571,-0.0010807079877714286,-0.005942584428471428,-0.06710529263530456,0.02505556467388353,-1.5842488408088684,1007.5034632142857,-100.0,-100.0,-100.0,-70.0,-77.0,-100.0,-53.0,-79.0,-81.0,-64.0,-100.0,-69.0,-54.0,-81.0,-100.0,-87.0,-62.0,-100.0,-80.0,-65.0,-80.0,-82.0,-88.0,-38.0,-38.0,-41.0,-59.0,-66.0,-69.0,-81.0,-81.0,-74.0,-81.0,-60.0,-66.0,-54.0,-53.0,-42.0,-70.0,-76.0,-63.0,-65.0,-79.0,-78.0,-89.0,-38.0,-39.0,-41.0,-59.0,-66.0,-69.0,-80.0,-79.0,-75.0,-81.0,-61.0,-67.0,-54.0,-53.0,-59.0,-70.0,-100.0,-100.0,-84.0,-100.0,-100.0,-82.0,-100.0,-78.0,-100.0,-100.0,-68.0,-66.0,-59.0,-100.0,-100.0,-64.0,-100.0,-69.0,-61.0,-100.0,-81.0,-100.0,-100.0,-100.0,-82.0,-100.0,-100.0,-100.0,-100.0,-87.0,-78.0,-79.0,-100.0,-100.0,-100.0,-80.0,-100.0,-88.0,-100.0,-100.0,-100.0,-100.0,-100.0,-78.0,-90.0,-100.0,-100.0,-100.0,-100.0,-100.0,-100.0,-100.0,-100.0,-100.0,-100.0,-100.0,-100.0,-100.0,-100.0,-100.0,-100.0,-100.0,-100.0,-100.0,-100.0,-100.0,-100.0,-100.0,-100.0,-100.0,-100.0,-100.0,-100.0,-100.0,-100.0,-100.0,-100.0,-100.0,-100.0,-100.0,-100.0,-100.0,-100.0,-100.0,-100.0,-100.0,-100.0,-100.0,-100.0,-100.0,-100.0,-100.0,-100.0,-100.0,-100.0,-100.0,-100.0,-100.0,-100.0,-100.0,-100.0,-100.0,-100.0,-100.0,-100.0,-100.0,-100.0,-100.0,-100.0,-100.0,-100.0,-100.0,-100.0
2021.02.06 173814,20.0,24.0,33.203035241071426,-4.428214228571428,-33.36964240178572,-0.29464544429464284,0.9089479476785715,9.956271102678572,0.0015336645003571428,-0.0024649722248928567,-0.0040347213077321425,-0.09107346819447616,0.02966028061304569,-1.6099489714418138,1007.499445982143,-100.0,-82.0,-82.0,-62.0,-79.0,-67.0,-59.0,-82.0,-69.0,-100.0,-77.0,-65.0,-47.0,-100.0,-79.0,-88.0,-100.0,-82.0,-79.0,-60.0,-83.0,-80.0,-100.0,-31.0,-33.0,-53.0,-58.0,-70.0,-71.0,-76.0,-87.0,-74.0,-86.0,-65.0,-71.0,-52.0,-56.0,-59.0,-71.0,-79.0,-59.0,-65.0,-83.0,-79.0,-100.0,-33.0,-33.0,-52.0,-58.0,-67.0,-72.0,-77.0,-87.0,-78.0,-85.0,-65.0,-71.0,-53.0,-57.0,-59.0,-71.0,-100.0,-100.0,-85.0,-73.0,-76.0,-100.0,-87.0,-82.0,-100.0,-100.0,-65.0,-61.0,-59.0,-100.0,-100.0,-63.0,-100.0,-62.0,-68.0,-88.0,-100.0,-100.0,-100.0,-82.0,-79.0,-79.0,-100.0,-80.0,-100.0,-89.0,-83.0,-84.0,-100.0,-88.0,-100.0,-100.0,-100.0,-87.0,-100.0,-100.0,-100.0,-100.0,-100.0,-100.0,-100.0,-87.0,-89.0,-91.0,-89.0,-100.0,-100.0,-100.0,-100.0,-100.0,-100.0,-100.0,-100.0,-100.0,-100.0,-100.0,-100.0,-100.0,-100.0,-100.0,-100.0,-100.0,-100.0,-100.0,-100.0,-100.0,-100.0,-100.0,-100.0,-100.0,-100.0,-100.0,-100.0,-100.0,-100.0,-100.0,-100.0,-100.0,-100.0,-100.0,-100.0,-100.0,-100.0,-100.0,-100.0,-100.0,-100.0,-100.0,-100.0,-100.0,-100.0,-100.0,-100.0,-100.0,-100.0,-100.0,-100.0,-100.0,-100.0,-100.0,-100.0,-100.0,-100.0,-100.0,-100.0,-100.0,-100.0,-100.0,-100.0
2021.02.06 173824,21.0,24.0,35.43932726890756,-3.7457142336134455,-35.93747853781513,-0.3336089963949579,0.88219972697479,9.970021878151261,0.00014221339865546197,-0.0009156715375126047,-0.005495472057529412,-0.08823820003190959,0.03348813376178131,-1.583552473733405,1007.5042537815125,-85.0,-76.0,-84.0,-72.0,-79.0,-61.0,-54.0,-80.0,-69.0,-84.0,-73.0,-64.0,-45.0,-92.0,-83.0,-100.0,-69.0,-83.0,-76.0,-58.0,-77.0,-81.0,-100.0,-27.0,-44.0,-51.0,-62.0,-65.0,-76.0,-100.0,-85.0,-77.0,-87.0,-66.0,-69.0,-50.0,-55.0,-65.0,-77.0,-80.0,-66.0,-59.0,-78.0,-81.0,-100.0,-27.0,-45.0,-51.0,-63.0,-60.0,-76.0,-100.0,-85.0,-76.0,-87.0,-66.0,-69.0,-51.0,-55.0,-64.0,-76.0,-100.0,-100.0,-87.0,-100.0,-100.0,-78.0,-87.0,-76.0,-100.0,-100.0,-70.0,-53.0,-67.0,-100.0,-100.0,-63.0,-100.0,-64.0,-65.0,-88.0,-100.0,-100.0,-92.0,-100.0,-78.0,-78.0,-100.0,-79.0,-100.0,-89.0,-83.0,-82.0,-100.0,-100.0,-86.0,-100.0,-100.0,-87.0,-87.0,-100.0,-86.0,-100.0,-100.0,-79.0,-100.0,-82.0,-90.0,-100.0,-100.0,-90.0,-100.0,-100.0,-100.0,-100.0,-100.0,-100.0,-100.0,-100.0,-100.0,-100.0,-100.0,-100.0,-100.0,-100.0,-100.0,-100.0,-100.0,-100.0,-100.0,-100.0,-100.0,-100.0,-100.0,-100.0,-100.0,-100.0,-100.0,-100.0,-100.0,-100.0,-100.0,-100.0,-100.0,-100.0,-100.0,-100.0,-100.0,-100.0,-100.0,-100.0,-100.0,-100.0,-100.0,-100.0,-100.0,-100.0,-100.0,-100.0,-100.0,-100.0,-100.0,-100.0,-100.0,-100.0,-100.0,-100.0,-100.0,-100.0,-100.0,-100.0,-100.0,-100.0,-100.0
2021.02.06 173834,22.0,24.0,36.62756700900901,-2.4232432090090095,-38.67459414414415,-0.24993209163963961,0.6457855242342343,9.986584887387385,-0.0034892180518018017,-0.001573291681369369,-0.00040603836646846837,-0.06462401467132135,0.025088992332703983,-1.5665541597314783,1007.5052209009009,-100.0,-78.0,-86.0,-76.0,-84.0,-62.0,-58.0,-78.0,-70.0,-100.0,-79.0,-70.0,-44.0,-100.0,-84.0,-100.0,-61.0,-80.0,-78.0,-62.0,-77.0,-78.0,-100.0,-31.0,-47.0,-63.0,-66.0,-65.0,-73.0,-100.0,-86.0,-79.0,-81.0,-68.0,-68.0,-52.0,-58.0,-64.0,-69.0,-77.0,-62.0,-63.0,-77.0,-80.0,-100.0,-31.0,-47.0,-62.0,-67.0,-66.0,-73.0,-100.0,-86.0,-80.0,-81.0,-69.0,-68.0,-52.0,-58.0,-62.0,-69.0,-90.0,-100.0,-100.0,-73.0,-100.0,-84.0,-86.0,-83.0,-100.0,-100.0,-68.0,-67.0,-62.0,-100.0,-100.0,-64.0,-100.0,-65.0,-71.0,-100.0,-100.0,-100.0,-100.0,-85.0,-82.0,-80.0,-100.0,-78.0,-81.0,-90.0,-77.0,-77.0,-100.0,-88.0,-77.0,-100.0,-100.0,-86.0,-100.0,-100.0,-100.0,-73.0,-100.0,-80.0,-100.0,-87.0,-100.0,-100.0,-100.0,-100.0,-100.0,-100.0,-100.0,-100.0,-100.0,-100.0,-100.0,-100.0,-100.0,-100.0,-100.0,-100.0,-100.0,-100.0,-100.0,-100.0,-100.0,-100.0,-100.0,-100.0,-100.0,-100.0,-100.0,-100.0,-100.0,-100.0,-100.0,-100.0,-100.0,-100.0,-100.0,-100.0,-100.0,-100.0,-100.0,-100.0,-100.0,-100.0,-100.0,-100.0,-100.0,-100.0,-100.0,-100.0,-100.0,-100.0,-100.0,-100.0,-100.0,-100.0,-100.0,-100.0,-100.0,-100.0,-100.0,-100.0,-100.0,-100.0,-100.0,-100.0,-100.0,-100.0,-100.0
2021.02.06 173844,23.0,24.0,35.93288105084747,-5.3166100957627105,-40.6093213983051,-0.2872318159966101,0.8065256721186442,9.984491224576269,-0.0032278116000847446,-0.002155194900372881,-0.000650095548389831,-0.0806592039258803,0.028930653294452654,-1.6260450896570238,1007.5113605084745,-100.0,-78.0,-100.0,-77.0,-100.0,-65.0,-59.0,-67.0,-76.0,-100.0,-80.0,-66.0,-47.0,-100.0,-85.0,-100.0,-100.0,-100.0,-100.0,-57.0,-79.0,-81.0,-100.0,-35.0,-48.0,-61.0,-66.0,-64.0,-70.0,-100.0,-87.0,-100.0,-78.0,-66.0,-72.0,-50.0,-55.0,-61.0,-68.0,-82.0,-57.0,-57.0,-79.0,-81.0,-100.0,-34.0,-48.0,-62.0,-66.0,-65.0,-70.0,-100.0,-86.0,-76.0,-78.0,-66.0,-72.0,-52.0,-55.0,-59.0,-69.0,-100.0,-100.0,-87.0,-67.0,-100.0,-84.0,-100.0,-72.0,-100.0,-100.0,-66.0,-64.0,-58.0,-100.0,-100.0,-74.0,-93.0,-64.0,-65.0,-87.0,-89.0,-100.0,-90.0,-83.0,-81.0,-74.0,-100.0,-100.0,-73.0,-92.0,-80.0,-81.0,-100.0,-82.0,-81.0,-100.0,-90.0,-78.0,-86.0,-100.0,-100.0,-100.0,-100.0,-100.0,-89.0,-100.0,-100.0,-100.0,-100.0,-100.0,-90.0,-100.0,-100.0,-100.0,-100.0,-100.0,-100.0,-100.0,-100.0,-100.0,-100.0,-100.0,-100.0,-100.0,-100.0,-100.0,-100.0,-100.0,-100.0,-100.0,-100.0,-100.0,-100.0,-100.0,-100.0,-100.0,-100.0,-100.0,-100.0,-100.0,-100.0,-100.0,-100.0,-100.0,-100.0,-100.0,-100.0,-100.0,-100.0,-100.0,-100.0,-100.0,-100.0,-100.0,-100.0,-100.0,-100.0,-100.0,-100.0,-100.0,-100.0,-100.0,-100.0,-100.0,-100.0,-100.0,-100.0,-100.0,-100.0,-100.0,-100.0,-100.0,-100.0
2021.02.06 173855,24.0,24.0,34.836963874999995,-5.982857054464286,-41.52214226785715,-0.18921184175892858,0.7181755569642857,9.978909785714285,-0.0007788969346428567,-0.00014695669710714277,-0.0024584708151249995,-0.07184866526430203,0.018982755502552812,-1.6562509930559568,1007.5171016071428,-100.0,-78.0,-100.0,-81.0,-89.0,-69.0,-62.0,-69.0,-70.0,-78.0,-78.0,-68.0,-53.0,-89.0,-84.0,-100.0,-58.0,-81.0,-100.0,-57.0,-75.0,-82.0,-100.0,-39.0,-51.0,-57.0,-72.0,-65.0,-74.0,-78.0,-86.0,-76.0,-76.0,-63.0,-72.0,-49.0,-53.0,-58.0,-63.0,-100.0,-63.0,-57.0,-74.0,-83.0,-100.0,-39.0,-52.0,-58.0,-72.0,-65.0,-75.0,-100.0,-86.0,-75.0,-76.0,-65.0,-73.0,-48.0,-53.0,-57.0,-63.0,-100.0,-100.0,-89.0,-65.0,-64.0,-75.0,-100.0,-71.0,-100.0,-100.0,-72.0,-63.0,-62.0,-100.0,-100.0,-70.0,-92.0,-66.0,-71.0,-100.0,-100.0,-90.0,-88.0,-87.0,-85.0,-100.0,-100.0,-80.0,-71.0,-91.0,-79.0,-79.0,-100.0,-85.0,-100.0,-100.0,-88.0,-79.0,-80.0,-100.0,-85.0,-84.0,-100.0,-74.0,-100.0,-80.0,-89.0,-100.0,-90.0,-100.0,-100.0,-100.0,-100.0,-100.0,-100.0,-100.0,-100.0,-100.0,-100.0,-100.0,-100.0,-100.0,-100.0,-100.0,-100.0,-100.0,-100.0,-100.0,-100.0,-100.0,-100.0,-100.0,-100.0,-100.0,-100.0,-100.0,-100.0,-100.0,-100.0,-100.0,-100.0,-100.0,-100.0,-100.0,-100.0,-100.0,-100.0,-100.0,-100.0,-100.0,-100.0,-100.0,-100.0,-100.0,-100.0,-100.0,-100.0,-100.0,-100.0,-100.0,-100.0,-100.0,-100.0,-100.0,-100.0,-100.0,-100.0,-100.0,-100.0,-100.0,-100.0,-100.0,-100.0
2021.02.06 173905,25.0,24.0,35.52535666071429,-6.779999902678571,-39.68196356250001,-0.20967006468750002,0.8385092391071429,9.96631849107143,-0.0017224654769642858,-0.001494132794535714,-0.005120097982392858,-0.08395539107732472,0.021079383973431325,-1.666731511907918,1007.5122135714284,-82.0,-72.0,-100.0,-77.0,-100.0,-73.0,-63.0,-65.0,-64.0,-79.0,-83.0,-72.0,-51.0,-100.0,-100.0,-100.0,-74.0,-76.0,-77.0,-53.0,-75.0,-83.0,-100.0,-42.0,-55.0,-63.0,-70.0,-64.0,-74.0,-80.0,-100.0,-100.0,-80.0,-64.0,-69.0,-45.0,-54.0,-61.0,-64.0,-80.0,-60.0,-53.0,-74.0,-83.0,-100.0,-42.0,-56.0,-63.0,-69.0,-67.0,-74.0,-79.0,-100.0,-100.0,-81.0,-63.0,-69.0,-45.0,-54.0,-61.0,-64.0,-100.0,-100.0,-88.0,-71.0,-58.0,-83.0,-87.0,-67.0,-100.0,-84.0,-73.0,-74.0,-60.0,-100.0,-100.0,-60.0,-100.0,-67.0,-66.0,-100.0,-85.0,-100.0,-89.0,-84.0,-87.0,-75.0,-100.0,-100.0,-73.0,-100.0,-79.0,-78.0,-100.0,-79.0,-73.0,-100.0,-93.0,-77.0,-85.0,-100.0,-100.0,-79.0,-100.0,-81.0,-100.0,-80.0,-100.0,-100.0,-100.0,-85.0,-100.0,-88.0,-100.0,-100.0,-100.0,-100.0,-100.0,-100.0,-100.0,-100.0,-100.0,-100.0,-100.0,-100.0,-100.0,-100.0,-100.0,-100.0,-100.0,-100.0,-100.0,-100.0,-100.0,-100.0,-100.0,-100.0,-100.0,-100.0,-100.0,-100.0,-100.0,-100.0,-100.0,-100.0,-100.0,-100.0,-100.0,-100.0,-100.0,-100.0,-100.0,-100.0,-100.0,-100.0,-100.0,-100.0,-100.0,-100.0,-100.0,-100.0,-100.0,-100.0,-100.0,-100.0,-100.0,-100.0,-100.0,-100.0,-100.0,-100.0,-100.0,-100.0,-100.0
2021.02.06 173915,26.0,24.0,35.53392820535714,-4.617857065178571,-36.535178151785715,-0.30747191446428573,0.8765397342857143,9.961401651785716,-0.0027369381014285712,-0.0017941113481071433,-0.006303649453875001,-0.08776060498452609,0.03091320311484321,-1.6079620985048158,1007.5149820535714,-78.0,-74.0,-100.0,-100.0,-100.0,-69.0,-57.0,-69.0,-67.0,-85.0,-100.0,-72.0,-53.0,-100.0,-86.0,-100.0,-63.0,-79.0,-68.0,-59.0,-75.0,-82.0,-100.0,-47.0,-56.0,-63.0,-76.0,-62.0,-77.0,-82.0,-84.0,-100.0,-79.0,-67.0,-72.0,-46.0,-53.0,-65.0,-63.0,-73.0,-63.0,-60.0,-75.0,-86.0,-100.0,-47.0,-56.0,-63.0,-74.0,-64.0,-77.0,-100.0,-84.0,-78.0,-79.0,-67.0,-73.0,-47.0,-53.0,-66.0,-63.0,-100.0,-100.0,-100.0,-62.0,-65.0,-80.0,-100.0,-70.0,-100.0,-85.0,-78.0,-69.0,-62.0,-100.0,-100.0,-70.0,-100.0,-57.0,-71.0,-86.0,-86.0,-100.0,-84.0,-87.0,-88.0,-75.0,-100.0,-75.0,-79.0,-100.0,-81.0,-81.0,-100.0,-76.0,-78.0,-100.0,-100.0,-77.0,-80.0,-100.0,-86.0,-100.0,-100.0,-83.0,-100.0,-100.0,-89.0,-100.0,-89.0,-87.0,-89.0,-100.0,-89.0,-87.0,-88.0,-100.0,-100.0,-100.0,-100.0,-100.0,-100.0,-100.0,-100.0,-100.0,-100.0,-100.0,-100.0,-100.0,-100.0,-100.0,-100.0,-100.0,-100.0,-100.0,-100.0,-100.0,-100.0,-100.0,-100.0,-100.0,-100.0,-100.0,-100.0,-100.0,-100.0,-100.0,-100.0,-100.0,-100.0,-100.0,-100.0,-100.0,-100.0,-100.0,-100.0,-100.0,-100.0,-100.0,-100.0,-100.0,-100.0,-100.0,-100.0,-100.0,-100.0,-100.0,-100.0,-100.0,-100.0,-100.0,-100.0,-100.0,-100.0
2021.02.06 173925,27.0,24.0,33.51391258260869,-2.093739099652174,-35.05826032173913,-0.33694733455652176,0.846573931478261,9.97740114347826,-0.0007445121177391306,-0.0017854794638608698,-0.0058040961828173905,-0.08463409866975698,0.033778428241772455,-1.5404359164445296,1007.5198789565219,-82.0,-68.0,-90.0,-81.0,-100.0,-80.0,-71.0,-78.0,-59.0,-85.0,-86.0,-83.0,-63.0,-91.0,-87.0,-100.0,-68.0,-100.0,-72.0,-54.0,-68.0,-86.0,-100.0,-52.0,-60.0,-71.0,-75.0,-63.0,-73.0,-100.0,-88.0,-73.0,-78.0,-68.0,-71.0,-47.0,-47.0,-64.0,-61.0,-75.0,-66.0,-54.0,-68.0,-87.0,-100.0,-52.0,-60.0,-70.0,-75.0,-63.0,-74.0,-100.0,-88.0,-73.0,-78.0,-68.0,-71.0,-49.0,-47.0,-66.0,-61.0,-100.0,-100.0,-100.0,-62.0,-100.0,-87.0,-86.0,-76.0,-100.0,-100.0,-75.0,-71.0,-67.0,-100.0,-100.0,-72.0,-100.0,-58.0,-100.0,-100.0,-82.0,-91.0,-87.0,-82.0,-90.0,-71.0,-100.0,-70.0,-80.0,-100.0,-84.0,-83.0,-100.0,-88.0,-100.0,-100.0,-100.0,-75.0,-75.0,-100.0,-87.0,-80.0,-100.0,-100.0,-100.0,-87.0,-100.0,-90.0,-100.0,-82.0,-88.0,-88.0,-90.0,-100.0,-86.0,-90.0,-89.0,-100.0,-100.0,-100.0,-100.0,-100.0,-100.0,-100.0,-100.0,-100.0,-100.0,-100.0,-100.0,-100.0,-100.0,-100.0,-100.0,-100.0,-100.0,-100.0,-100.0,-100.0,-100.0,-100.0,-100.0,-100.0,-100.0,-100.0,-100.0,-100.0,-100.0,-100.0,-100.0,-100.0,-100.0,-100.0,-100.0,-100.0,-100.0,-100.0,-100.0,-100.0,-100.0,-100.0,-100.0,-100.0,-100.0,-100.0,-100.0,-100.0,-100.0,-100.0,-100.0,-100.0,-100.0,-100.0,-100.0
2021.02.06 173935,28.0,24.0,32.717521761061946,-1.1697344961061946,-32.57203514159292,-0.4254605167256637,0.9952979161946901,9.954398818584071,-0.0021871788233628316,-0.0018055987521061947,-0.004020482439345132,-0.09959922889165115,0.042736357242792004,-1.499764116464463,1007.52287539823,-77.0,-63.0,-100.0,-100.0,-100.0,-77.0,-73.0,-80.0,-60.0,-83.0,-100.0,-83.0,-64.0,-100.0,-100.0,-100.0,-73.0,-79.0,-69.0,-53.0,-70.0,-100.0,-100.0,-50.0,-58.0,-70.0,-78.0,-65.0,-79.0,-100.0,-100.0,-76.0,-76.0,-65.0,-70.0,-43.0,-48.0,-57.0,-65.0,-69.0,-70.0,-55.0,-70.0,-100.0,-100.0,-50.0,-58.0,-70.0,-79.0,-64.0,-78.0,-100.0,-100.0,-76.0,-77.0,-65.0,-70.0,-42.0,-48.0,-57.0,-65.0,-100.0,-100.0,-100.0,-59.0,-100.0,-100.0,-82.0,-79.0,-100.0,-100.0,-85.0,-77.0,-71.0,-100.0,-100.0,-79.0,-100.0,-54.0,-65.0,-86.0,-100.0,-90.0,-100.0,-83.0,-92.0,-71.0,-100.0,-100.0,-76.0,-100.0,-86.0,-85.0,-100.0,-90.0,-63.0,-100.0,-100.0,-57.0,-76.0,-100.0,-86.0,-75.0,-92.0,-78.0,-100.0,-88.0,-88.0,-100.0,-100.0,-75.0,-100.0,-100.0,-100.0,-100.0,-85.0,-100.0,-100.0,-83.0,-100.0,-100.0,-100.0,-100.0,-100.0,-100.0,-100.0,-100.0,-100.0,-100.0,-100.0,-100.0,-100.0,-100.0,-100.0,-100.0,-100.0,-100.0,-100.0,-100.0,-100.0,-100.0,-100.0,-100.0,-100.0,-100.0,-100.0,-100.0,-100.0,-100.0,-100.0,-100.0,-100.0,-100.0,-100.0,-100.0,-100.0,-100.0,-100.0,-100.0,-100.0,-100.0,-100.0,-100.0,-100.0,-100.0,-100.0,-100.0,-100.0,-100.0,-100.0,-100.0,-100.0,-100.0,-100.0
2021.02.06 173945,29.0,24.0,31.725945603603602,-0.9713513319819819,-29.84324285585586,-0.23901764918918916,0.7633854054954955,9.971464288288287,-0.0008971685756756756,-0.001419199444144144,-0.004219818556072071,-0.07643436455914561,0.023985163237362515,-1.526139209936331,1007.5219454054056,-81.0,-68.0,-100.0,-100.0,-100.0,-100.0,-76.0,-83.0,-56.0,-76.0,-87.0,-73.0,-73.0,-100.0,-100.0,-100.0,-72.0,-100.0,-76.0,-52.0,-65.0,-100.0,-100.0,-52.0,-60.0,-64.0,-80.0,-62.0,-75.0,-78.0,-89.0,-100.0,-80.0,-63.0,-71.0,-41.0,-43.0,-57.0,-66.0,-67.0,-66.0,-53.0,-65.0,-100.0,-100.0,-52.0,-60.0,-64.0,-80.0,-53.0,-74.0,-77.0,-89.0,-72.0,-81.0,-62.0,-71.0,-41.0,-43.0,-58.0,-66.0,-100.0,-100.0,-100.0,-60.0,-100.0,-100.0,-86.0,-79.0,-100.0,-100.0,-85.0,-81.0,-66.0,-100.0,-100.0,-79.0,-100.0,-56.0,-77.0,-87.0,-100.0,-100.0,-100.0,-85.0,-100.0,-69.0,-100.0,-100.0,-100.0,-100.0,-100.0,-100.0,-100.0,-90.0,-68.0,-100.0,-100.0,-73.0,-77.0,-100.0,-86.0,-100.0,-100.0,-100.0,-100.0,-100.0,-100.0,-100.0,-100.0,-76.0,-89.0,-100.0,-87.0,-100.0,-85.0,-100.0,-100.0,-83.0,-100.0,-100.0,-100.0,-100.0,-100.0,-100.0,-100.0,-100.0,-100.0,-100.0,-100.0,-100.0,-100.0,-100.0,-100.0,-100.0,-100.0,-100.0,-100.0,-100.0,-100.0,-100.0,-100.0,-100.0,-100.0,-100.0,-100.0,-100.0,-100.0,-100.0,-100.0,-100.0,-100.0,-100.0,-100.0,-100.0,-100.0,-100.0,-100.0,-100.0,-100.0,-100.0,-100.0,-100.0,-100.0,-100.0,-100.0,-100.0,-100.0,-100.0,-100.0,-100.0,-100.0,-100.0,-100.0
2021.02.06 173956,30.0,24.0,35.208849185840705,-2.4892034991150442,-31.10920322123894,-0.3481233195575222,0.8664732212389382,9.964547991150443,-0.0017114608111504423,-0.0038814593579115046,-0.004674594963079647,-0.08671027606567447,0.0349202414529513,-1.5611492764633315,1007.5264280530973,-81.0,-68.0,-100.0,-100.0,-100.0,-100.0,-76.0,-83.0,-56.0,-76.0,-87.0,-73.0,-73.0,-100.0,-100.0,-100.0,-72.0,-100.0,-76.0,-52.0,-65.0,-100.0,-100.0,-52.0,-60.0,-64.0,-80.0,-62.0,-75.0,-78.0,-89.0,-100.0,-80.0,-63.0,-71.0,-41.0,-43.0,-57.0,-66.0,-67.0,-66.0,-53.0,-65.0,-100.0,-100.0,-52.0,-60.0,-64.0,-80.0,-53.0,-74.0,-77.0,-89.0,-72.0,-81.0,-62.0,-71.0,-41.0,-43.0,-58.0,-66.0,-100.0,-100.0,-100.0,-60.0,-100.0,-100.0,-86.0,-79.0,-100.0,-100.0,-85.0,-81.0,-66.0,-100.0,-100.0,-79.0,-100.0,-56.0,-77.0,-87.0,-100.0,-100.0,-100.0,-85.0,-100.0,-69.0,-100.0,-100.0,-100.0,-100.0,-100.0,-100.0,-100.0,-90.0,-68.0,-100.0,-100.0,-76.0,-77.0,-100.0,-86.0,-100.0,-100.0,-100.0,-100.0,-100.0,-100.0,-100.0,-100.0,-76.0,-89.0,-100.0,-87.0,-100.0,-85.0,-100.0,-100.0,-83.0,-100.0,-100.0,-100.0,-100.0,-100.0,-100.0,-100.0,-100.0,-100.0,-100.0,-100.0,-100.0,-100.0,-100.0,-100.0,-100.0,-100.0,-100.0,-100.0,-100.0,-100.0,-100.0,-100.0,-100.0,-100.0,-100.0,-100.0,-100.0,-100.0,-100.0,-100.0,-100.0,-100.0,-100.0,-100.0,-100.0,-100.0,-100.0,-100.0,-100.0,-100.0,-100.0,-100.0,-100.0,-100.0,-100.0,-100.0,-100.0,-100.0,-100.0,-100.0,-100.0,-100.0,-100.0,-100.0
2021.02.06 174006,31.0,24.0,36.76956474782609,-3.577043433913044,-33.376173513043476,-0.24469488468695652,0.8003331971304347,9.96676225652174,-0.00025050772878260844,-0.0016633064489739138,-0.003939629344747827,-0.08012732649626934,0.02454685926963773,-1.5935334900151128,1007.5271845217392,-81.0,-67.0,-100.0,-88.0,-100.0,-100.0,-100.0,-100.0,-63.0,-88.0,-100.0,-80.0,-69.0,-100.0,-100.0,-100.0,-65.0,-78.0,-67.0,-59.0,-64.0,-84.0,-100.0,-58.0,-64.0,-68.0,-84.0,-65.0,-71.0,-100.0,-90.0,-69.0,-79.0,-67.0,-75.0,-38.0,-34.0,-56.0,-69.0,-66.0,-71.0,-59.0,-64.0,-84.0,-100.0,-57.0,-64.0,-68.0,-84.0,-67.0,-71.0,-100.0,-91.0,-69.0,-79.0,-65.0,-75.0,-37.0,-34.0,-56.0,-69.0,-100.0,-100.0,-100.0,-71.0,-100.0,-90.0,-86.0,-89.0,-100.0,-100.0,-88.0,-84.0,-69.0,-100.0,-100.0,-83.0,-100.0,-52.0,-100.0,-85.0,-83.0,-100.0,-87.0,-83.0,-100.0,-62.0,-100.0,-68.0,-100.0,-100.0,-87.0,-89.0,-100.0,-91.0,-77.0,-100.0,-100.0,-82.0,-86.0,-100.0,-80.0,-100.0,-100.0,-100.0,-100.0,-100.0,-100.0,-100.0,-100.0,-86.0,-89.0,-87.0,-100.0,-100.0,-90.0,-92.0,-100.0,-100.0,-88.0,-100.0,-100.0,-100.0,-100.0,-100.0,-100.0,-100.0,-100.0,-100.0,-100.0,-100.0,-100.0,-100.0,-100.0,-100.0,-100.0,-100.0,-100.0,-100.0,-100.0,-100.0,-100.0,-100.0,-100.0,-100.0,-100.0,-100.0,-100.0,-100.0,-100.0,-100.0,-100.0,-100.0,-100.0,-100.0,-100.0,-100.0,-100.0,-100.0,-100.0,-100.0,-100.0,-100.0,-100.0,-100.0,-100.0,-100.0,-100.0,-100.0,-100.0,-100.0,-100.0,-100.0,-100.0
2021.02.06 174016,32.0,24.0,40.2214280625,-5.01803565,-35.125178017857145,-0.3691672477678572,0.74322993,9.965762794642858,0.0023517875517857154,-0.0007687302789642852,-0.006505453137374999,-0.0744261846411973,0.03706907665556557,-1.6293169440967696,1007.5298381250001,-78.0,-69.0,-100.0,-100.0,-100.0,-100.0,-100.0,-100.0,-60.0,-81.0,-100.0,-85.0,-70.0,-88.0,-93.0,-100.0,-73.0,-100.0,-68.0,-46.0,-63.0,-85.0,-100.0,-58.0,-63.0,-73.0,-80.0,-65.0,-76.0,-80.0,-88.0,-72.0,-77.0,-72.0,-70.0,-34.0,-35.0,-59.0,-65.0,-80.0,-75.0,-47.0,-62.0,-100.0,-100.0,-59.0,-63.0,-73.0,-81.0,-62.0,-76.0,-80.0,-90.0,-72.0,-76.0,-72.0,-72.0,-34.0,-35.0,-58.0,-65.0,-100.0,-100.0,-100.0,-77.0,-100.0,-90.0,-80.0,-84.0,-100.0,-81.0,-100.0,-100.0,-75.0,-100.0,-100.0,-87.0,-100.0,-51.0,-79.0,-86.0,-84.0,-88.0,-83.0,-86.0,-92.0,-63.0,-100.0,-100.0,-100.0,-100.0,-100.0,-100.0,-100.0,-90.0,-72.0,-100.0,-100.0,-80.0,-82.0,-100.0,-100.0,-73.0,-89.0,-100.0,-100.0,-100.0,-100.0,-100.0,-100.0,-85.0,-84.0,-100.0,-84.0,-100.0,-100.0,-93.0,-100.0,-85.0,-100.0,-100.0,-100.0,-100.0,-100.0,-100.0,-100.0,-100.0,-100.0,-100.0,-100.0,-100.0,-100.0,-100.0,-100.0,-100.0,-100.0,-100.0,-100.0,-100.0,-100.0,-100.0,-100.0,-100.0,-100.0,-100.0,-100.0,-100.0,-100.0,-100.0,-100.0,-100.0,-100.0,-100.0,-100.0,-100.0,-100.0,-100.0,-100.0,-100.0,-100.0,-100.0,-100.0,-100.0,-100.0,-100.0,-100.0,-100.0,-100.0,-100.0,-100.0,-100.0,-100.0,-100.0,-100.0
2021.02.06 174027,33.0,24.0,42.57716753097345,-7.692212211504426,-36.33610577876106,-0.3801599883893805,0.8674690717699115,9.96289528318584,0.004878315944247789,-0.0007568566782654864,-0.0034528644373274333,-0.08684555144436588,0.03819639927221342,-1.6763728456159608,1007.5328874336283,-86.0,-63.0,-100.0,-83.0,-100.0,-88.0,-80.0,-100.0,-54.0,-73.0,-100.0,-100.0,-67.0,-100.0,-100.0,-100.0,-73.0,-69.0,-72.0,-48.0,-59.0,-100.0,-100.0,-60.0,-66.0,-74.0,-88.0,-63.0,-74.0,-100.0,-100.0,-69.0,-76.0,-66.0,-73.0,-32.0,-37.0,-61.0,-60.0,-73.0,-74.0,-48.0,-59.0,-100.0,-100.0,-60.0,-67.0,-74.0,-88.0,-72.0,-76.0,-100.0,-100.0,-68.0,-76.0,-65.0,-73.0,-32.0,-37.0,-62.0,-61.0,-100.0,-100.0,-100.0,-65.0,-100.0,-91.0,-79.0,-100.0,-100.0,-80.0,-100.0,-100.0,-73.0,-100.0,-100.0,-100.0,-100.0,-49.0,-100.0,-86.0,-85.0,-100.0,-87.0,-78.0,-95.0,-65.0,-100.0,-66.0,-88.0,-100.0,-100.0,-100.0,-100.0,-100.0,-77.0,-100.0,-90.0,-84.0,-82.0,-100.0,-100.0,-100.0,-100.0,-100.0,-100.0,-86.0,-88.0,-89.0,-89.0,-100.0,-82.0,-100.0,-82.0,-100.0,-100.0,-100.0,-89.0,-87.0,-88.0,-88.0,-100.0,-100.0,-100.0,-100.0,-100.0,-100.0,-100.0,-100.0,-100.0,-100.0,-100.0,-100.0,-100.0,-100.0,-100.0,-100.0,-100.0,-100.0,-100.0,-100.0,-100.0,-100.0,-100.0,-100.0,-100.0,-100.0,-100.0,-100.0,-100.0,-100.0,-100.0,-100.0,-100.0,-100.0,-100.0,-100.0,-100.0,-100.0,-100.0,-100.0,-100.0,-100.0,-100.0,-100.0,-100.0,-100.0,-100.0,-100.0,-100.0,-100.0,-100.0,-100.0,-100.0
2021.02.06 174037,34.0,24.0,41.88321374107142,-11.083928312499998,-35.02607103571429,-0.320533538625,0.5466214908035714,9.981646183035716,-0.007356606283124999,-0.00012514003421428563,-0.0033147730556785707,-0.05474276784142208,0.03208054152284079,-1.7893724824701036,1007.5346286607142,-67.0,-61.0,-100.0,-88.0,-100.0,-85.0,-100.0,-100.0,-49.0,-100.0,-100.0,-100.0,-73.0,-100.0,-100.0,-100.0,-100.0,-72.0,-74.0,-54.0,-59.0,-88.0,-100.0,-59.0,-70.0,-71.0,-87.0,-58.0,-79.0,-85.0,-88.0,-65.0,-74.0,-71.0,-75.0,-35.0,-41.0,-60.0,-58.0,-75.0,-79.0,-53.0,-59.0,-100.0,-100.0,-59.0,-70.0,-71.0,-87.0,-59.0,-79.0,-86.0,-89.0,-64.0,-74.0,-71.0,-75.0,-35.0,-41.0,-60.0,-58.0,-100.0,-100.0,-100.0,-71.0,-100.0,-100.0,-100.0,-89.0,-100.0,-80.0,-100.0,-100.0,-78.0,-100.0,-100.0,-100.0,-100.0,-51.0,-85.0,-84.0,-79.0,-100.0,-83.0,-79.0,-100.0,-63.0,-100.0,-68.0,-82.0,-100.0,-100.0,-100.0,-100.0,-100.0,-78.0,-100.0,-100.0,-83.0,-81.0,-100.0,-100.0,-74.0,-100.0,-100.0,-100.0,-100.0,-88.0,-100.0,-88.0,-100.0,-83.0,-86.0,-84.0,-84.0,-100.0,-100.0,-88.0,-89.0,-86.0,-100.0,-91.0,-100.0,-100.0,-100.0,-100.0,-100.0,-100.0,-100.0,-100.0,-100.0,-100.0,-100.0,-100.0,-100.0,-100.0,-100.0,-100.0,-100.0,-100.0,-100.0,-100.0,-100.0,-100.0,-100.0,-100.0,-100.0,-100.0,-100.0,-100.0,-100.0,-100.0,-100.0,-100.0,-100.0,-100.0,-100.0,-100.0,-100.0,-100.0,-100.0,-100.0,-100.0,-100.0,-100.0,-100.0,-100.0,-100.0,-100.0,-100.0,-100.0,-100.0,-100.0,-100.0
2021.02.06 174047,35.0,24.0,38.06263101754386,-14.962104995614034,-32.80631553508772,-0.3206438024561403,0.5660149621052631,9.99546725877193,0.002768312719122807,-0.0006273050254385961,-0.0015469574273859644,-0.05655343265256333,0.032072573941070215,-1.9089103382930421,1007.5364271929824,-71.0,-64.0,-100.0,-100.0,-100.0,-100.0,-81.0,-91.0,-51.0,-75.0,-100.0,-87.0,-72.0,-100.0,-100.0,-100.0,-100.0,-72.0,-100.0,-47.0,-59.0,-100.0,-100.0,-100.0,-68.0,-100.0,-84.0,-56.0,-72.0,-100.0,-88.0,-62.0,-74.0,-100.0,-72.0,-40.0,-43.0,-54.0,-62.0,-100.0,-100.0,-47.0,-59.0,-100.0,-100.0,-100.0,-68.0,-100.0,-83.0,-48.0,-72.0,-100.0,-88.0,-63.0,-75.0,-100.0,-72.0,-40.0,-43.0,-54.0,-62.0,-100.0,-100.0,-100.0,-61.0,-100.0,-100.0,-85.0,-100.0,-100.0,-100.0,-100.0,-100.0,-100.0,-100.0,-100.0,-100.0,-77.0,-57.0,-100.0,-80.0,-100.0,-100.0,-84.0,-79.0,-100.0,-65.0,-100.0,-66.0,-100.0,-100.0,-100.0,-100.0,-100.0,-100.0,-100.0,-100.0,-100.0,-84.0,-100.0,-100.0,-83.0,-100.0,-100.0,-100.0,-100.0,-100.0,-89.0,-100.0,-88.0,-100.0,-87.0,-87.0,-87.0,-100.0,-100.0,-100.0,-100.0,-100.0,-85.0,-91.0,-90.0,-100.0,-100.0,-100.0,-100.0,-100.0,-100.0,-100.0,-100.0,-100.0,-100.0,-100.0,-100.0,-100.0,-100.0,-100.0,-100.0,-100.0,-100.0,-100.0,-100.0,-100.0,-100.0,-100.0,-100.0,-100.0,-100.0,-100.0,-100.0,-100.0,-100.0,-100.0,-100.0,-100.0,-100.0,-100.0,-100.0,-100.0,-100.0,-100.0,-100.0,-100.0,-100.0,-100.0,-100.0,-100.0,-100.0,-100.0,-100.0,-100.0,-100.0,-100.0,-100.0
2021.02.06 174059,36.0,24.0,33.194999448275865,-15.834310034482757,-30.44224104310345,-0.3789352681896551,0.6276508850862068,9.987965129310345,-0.000536845392672412,-0.002813097782068966,-0.005058785823224138,-0.06274948718732797,0.03793299921531354,-1.977642902012529,1007.5388850000002,-63.0,-62.0,-100.0,-100.0,-100.0,-100.0,-100.0,-100.0,-49.0,-100.0,-100.0,-100.0,-100.0,-100.0,-100.0,-100.0,-100.0,-71.0,-65.0,-41.0,-53.0,-100.0,-100.0,-58.0,-67.0,-67.0,-85.0,-59.0,-71.0,-100.0,-89.0,-64.0,-72.0,-63.0,-74.0,-39.0,-43.0,-52.0,-60.0,-74.0,-100.0,-40.0,-53.0,-100.0,-100.0,-56.0,-67.0,-65.0,-84.0,-60.0,-71.0,-100.0,-100.0,-66.0,-72.0,-64.0,-74.0,-39.0,-43.0,-53.0,-60.0,-100.0,-100.0,-100.0,-64.0,-100.0,-100.0,-75.0,-100.0,-100.0,-100.0,-100.0,-100.0,-100.0,-100.0,-100.0,-100.0,-100.0,-51.0,-100.0,-86.0,-100.0,-100.0,-100.0,-81.0,-100.0,-100.0,-100.0,-66.0,-100.0,-100.0,-100.0,-100.0,-100.0,-100.0,-100.0,-100.0,-82.0,-80.0,-100.0,-100.0,-79.0,-100.0,-100.0,-100.0,-100.0,-100.0,-89.0,-89.0,-90.0,-100.0,-88.0,-90.0,-87.0,-100.0,-100.0,-100.0,-100.0,-100.0,-83.0,-100.0,-85.0,-87.0,-100.0,-100.0,-100.0,-100.0,-100.0,-100.0,-100.0,-100.0,-100.0,-100.0,-100.0,-100.0,-100.0,-100.0,-100.0,-100.0,-100.0,-100.0,-100.0,-100.0,-100.0,-100.0,-100.0,-100.0,-100.0,-100.0,-100.0,-100.0,-100.0,-100.0,-100.0,-100.0,-100.0,-100.0,-100.0,-100.0,-100.0,-100.0,-100.0,-100.0,-100.0,-100.0,-100.0,-100.0,-100.0,-100.0,-100.0,-100.0,-100.0,-100.0,-100.0
2021.02.06 174109,37.0,24.0,23.466841824561406,-16.607894517543862,-28.164210192982456,-0.2760346829122807,0.7737288039473684,9.984861043859649,-0.00014133498859649038,-0.0011953025244561403,-0.0029830264784385966,-0.07732966097823357,0.027656422196805686,-2.1344657090672277,1007.5397453508774,-60.0,-63.0,-100.0,-100.0,-100.0,-100.0,-82.0,-100.0,-58.0,-100.0,-100.0,-100.0,-72.0,-100.0,-100.0,-100.0,-78.0,-68.0,-100.0,-44.0,-62.0,-100.0,-100.0,-57.0,-62.0,-68.0,-85.0,-45.0,-78.0,-100.0,-100.0,-59.0,-69.0,-64.0,-73.0,-48.0,-51.0,-52.0,-64.0,-100.0,-73.0,-46.0,-62.0,-100.0,-100.0,-57.0,-62.0,-68.0,-84.0,-57.0,-77.0,-100.0,-100.0,-61.0,-70.0,-64.0,-73.0,-46.0,-51.0,-52.0,-64.0,-100.0,-100.0,-100.0,-66.0,-100.0,-83.0,-73.0,-91.0,-100.0,-80.0,-100.0,-100.0,-77.0,-100.0,-100.0,-100.0,-100.0,-55.0,-100.0,-85.0,-80.0,-100.0,-81.0,-76.0,-100.0,-76.0,-100.0,-67.0,-100.0,-100.0,-100.0,-100.0,-100.0,-100.0,-100.0,-100.0,-100.0,-77.0,-100.0,-100.0,-100.0,-68.0,-100.0,-100.0,-100.0,-100.0,-83.0,-83.0,-83.0,-86.0,-83.0,-89.0,-83.0,-100.0,-100.0,-100.0,-100.0,-100.0,-82.0,-88.0,-83.0,-100.0,-100.0,-100.0,-100.0,-100.0,-100.0,-100.0,-100.0,-100.0,-100.0,-100.0,-100.0,-100.0,-100.0,-100.0,-100.0,-100.0,-100.0,-100.0,-100.0,-100.0,-100.0,-100.0,-100.0,-100.0,-100.0,-100.0,-100.0,-100.0,-100.0,-100.0,-100.0,-100.0,-100.0,-100.0,-100.0,-100.0,-100.0,-100.0,-100.0,-100.0,-100.0,-100.0,-100.0,-100.0,-100.0,-100.0,-100.0,-100.0,-100.0,-100.0,-100.0
2021.02.06 174120,38.0,24.0,21.324736631578944,-15.526841798245615,-26.25157857894737,-0.3001664515789474,0.6827253572807017,9.979757473684211,0.000849981396491228,0.0004872561155087717,-0.0052175072036666666,-0.06831295183745388,0.030067070861134568,-2.157962623395418,1007.5361478070175,-57.0,-68.0,-100.0,-100.0,-100.0,-100.0,-85.0,-100.0,-62.0,-60.0,-100.0,-100.0,-72.0,-100.0,-100.0,-100.0,-79.0,-60.0,-100.0,-49.0,-67.0,-100.0,-100.0,-56.0,-67.0,-73.0,-82.0,-58.0,-75.0,-100.0,-100.0,-59.0,-68.0,-64.0,-71.0,-48.0,-53.0,-56.0,-68.0,-100.0,-100.0,-49.0,-67.0,-100.0,-100.0,-54.0,-68.0,-73.0,-82.0,-65.0,-75.0,-100.0,-100.0,-57.0,-67.0,-65.0,-71.0,-49.0,-53.0,-55.0,-68.0,-100.0,-100.0,-100.0,-100.0,-100.0,-100.0,-78.0,-100.0,-100.0,-100.0,-100.0,-100.0,-100.0,-100.0,-100.0,-100.0,-100.0,-57.0,-100.0,-81.0,-81.0,-100.0,-80.0,-79.0,-100.0,-74.0,-100.0,-61.0,-100.0,-100.0,-100.0,-100.0,-100.0,-100.0,-100.0,-100.0,-100.0,-100.0,-84.0,-100.0,-100.0,-58.0,-100.0,-100.0,-100.0,-100.0,-87.0,-100.0,-87.0,-100.0,-83.0,-85.0,-83.0,-100.0,-100.0,-100.0,-100.0,-100.0,-77.0,-89.0,-73.0,-100.0,-90.0,-100.0,-100.0,-100.0,-100.0,-100.0,-100.0,-100.0,-100.0,-100.0,-100.0,-100.0,-100.0,-100.0,-100.0,-100.0,-100.0,-100.0,-100.0,-100.0,-100.0,-100.0,-100.0,-100.0,-100.0,-100.0,-100.0,-100.0,-100.0,-100.0,-100.0,-100.0,-100.0,-100.0,-100.0,-100.0,-100.0,-100.0,-100.0,-100.0,-100.0,-100.0,-100.0,-100.0,-100.0,-100.0,-100.0,-100.0,-100.0,-100.0,-100.0
2021.02.06 174131,39.0,24.0,18.078918693693694,-12.684324004504505,-25.17189155855856,-0.3152893229189189,0.7034206835135137,9.983025891891888,0.000715295775045045,-0.0005001499804684682,-0.002557824961225226,-0.07035360062444528,0.031583139752583145,-2.1319112455522693,1007.5374266666665,-57.0,-67.0,-100.0,-100.0,-100.0,-100.0,-84.0,-100.0,-70.0,-100.0,-100.0,-100.0,-82.0,-100.0,-100.0,-100.0,-100.0,-67.0,-70.0,-56.0,-69.0,-100.0,-100.0,-58.0,-66.0,-72.0,-88.0,-56.0,-73.0,-100.0,-100.0,-59.0,-70.0,-66.0,-76.0,-52.0,-59.0,-64.0,-61.0,-100.0,-100.0,-57.0,-69.0,-100.0,-100.0,-57.0,-66.0,-72.0,-87.0,-57.0,-73.0,-100.0,-100.0,-59.0,-70.0,-65.0,-76.0,-52.0,-59.0,-64.0,-61.0,-100.0,-100.0,-100.0,-100.0,-100.0,-92.0,-67.0,-100.0,-100.0,-100.0,-100.0,-100.0,-100.0,-100.0,-100.0,-100.0,-100.0,-65.0,-100.0,-100.0,-80.0,-100.0,-100.0,-75.0,-100.0,-78.0,-100.0,-65.0,-100.0,-100.0,-100.0,-100.0,-100.0,-100.0,-100.0,-100.0,-100.0,-88.0,-84.0,-100.0,-76.0,-100.0,-100.0,-100.0,-100.0,-100.0,-88.0,-100.0,-89.0,-100.0,-79.0,-86.0,-79.0,-71.0,-100.0,-100.0,-100.0,-100.0,-78.0,-89.0,-81.0,-73.0,-100.0,-100.0,-100.0,-100.0,-100.0,-100.0,-100.0,-100.0,-100.0,-100.0,-100.0,-100.0,-100.0,-100.0,-100.0,-100.0,-100.0,-100.0,-100.0,-100.0,-100.0,-100.0,-100.0,-100.0,-100.0,-100.0,-100.0,-100.0,-100.0,-100.0,-100.0,-100.0,-100.0,-100.0,-100.0,-100.0,-100.0,-100.0,-100.0,-100.0,-100.0,-100.0,-100.0,-100.0,-100.0,-100.0,-100.0,-100.0,-100.0,-100.0,-100.0
2021.02.06 174142,40.0,24.0,16.258392598214286,-6.703928442857142,-27.013392553571432,-0.3738489108035714,0.8293169337500002,9.960931433035714,0.0003173879516071434,-0.000550564177857143,-0.0023439336884642854,-0.08302344953907384,0.03749611136819498,-1.8505039736628532,1007.5353273214286,-60.0,-69.0,-100.0,-100.0,-100.0,-100.0,-85.0,-100.0,-68.0,-100.0,-100.0,-100.0,-100.0,-100.0,-100.0,-100.0,-100.0,-100.0,-64.0,-60.0,-71.0,-100.0,-100.0,-60.0,-72.0,-100.0,-88.0,-59.0,-72.0,-100.0,-91.0,-62.0,-64.0,-100.0,-76.0,-54.0,-58.0,-100.0,-57.0,-64.0,-100.0,-59.0,-71.0,-100.0,-100.0,-61.0,-72.0,-100.0,-88.0,-100.0,-73.0,-100.0,-100.0,-86.0,-64.0,-100.0,-76.0,-55.0,-58.0,-100.0,-57.0,-100.0,-100.0,-100.0,-69.0,-100.0,-100.0,-66.0,-100.0,-100.0,-81.0,-100.0,-100.0,-100.0,-100.0,-100.0,-100.0,-100.0,-59.0,-100.0,-82.0,-100.0,-100.0,-100.0,-74.0,-100.0,-100.0,-100.0,-100.0,-100.0,-100.0,-100.0,-100.0,-100.0,-100.0,-100.0,-100.0,-100.0,-86.0,-100.0,-100.0,-76.0,-69.0,-100.0,-100.0,-100.0,-100.0,-83.0,-100.0,-83.0,-100.0,-86.0,-84.0,-85.0,-100.0,-100.0,-100.0,-100.0,-100.0,-75.0,-89.0,-80.0,-100.0,-92.0,-89.0,-100.0,-100.0,-100.0,-100.0,-100.0,-100.0,-100.0,-100.0,-100.0,-100.0,-100.0,-100.0,-100.0,-100.0,-100.0,-100.0,-100.0,-100.0,-100.0,-100.0,-100.0,-100.0,-100.0,-100.0,-100.0,-100.0,-100.0,-100.0,-100.0,-100.0,-100.0,-100.0,-100.0,-100.0,-100.0,-100.0,-100.0,-100.0,-100.0,-100.0,-100.0,-100.0,-100.0,-100.0,-100.0,-100.0,-100.0,-100.0,-100.0
2021.02.06 174153,41.0,24.0,20.23721713913044,-0.5326956433913044,-27.735651834782605,-0.31960445739130433,0.6765804175652175,9.99499388695652,-1.1473799565217426e-05,-0.0014295840590260866,-0.0020273555209913046,-0.06757139025822925,0.03195840017465141,-1.4968999852304874,1007.5439189565219,-61.0,-68.0,-100.0,-100.0,-100.0,-100.0,-100.0,-100.0,-77.0,-100.0,-100.0,-100.0,-100.0,-100.0,-100.0,-100.0,-100.0,-100.0,-100.0,-59.0,-77.0,-100.0,-100.0,-63.0,-70.0,-74.0,-100.0,-59.0,-74.0,-100.0,-100.0,-55.0,-64.0,-70.0,-75.0,-51.0,-62.0,-58.0,-60.0,-100.0,-87.0,-59.0,-77.0,-100.0,-100.0,-64.0,-70.0,-74.0,-100.0,-59.0,-75.0,-100.0,-100.0,-55.0,-64.0,-70.0,-75.0,-52.0,-62.0,-57.0,-60.0,-100.0,-100.0,-100.0,-73.0,-100.0,-100.0,-66.0,-100.0,-100.0,-76.0,-100.0,-100.0,-85.0,-100.0,-100.0,-100.0,-100.0,-67.0,-100.0,-78.0,-100.0,-100.0,-100.0,-73.0,-100.0,-100.0,-100.0,-100.0,-100.0,-100.0,-100.0,-100.0,-100.0,-100.0,-100.0,-100.0,-76.0,-100.0,-100.0,-100.0,-77.0,-69.0,-100.0,-100.0,-100.0,-100.0,-87.0,-82.0,-86.0,-100.0,-86.0,-87.0,-85.0,-100.0,-100.0,-100.0,-81.0,-91.0,-77.0,-91.0,-100.0,-100.0,-86.0,-100.0,-86.0,-100.0,-100.0,-100.0,-100.0,-100.0,-100.0,-100.0,-100.0,-100.0,-100.0,-100.0,-100.0,-100.0,-100.0,-100.0,-100.0,-100.0,-100.0,-100.0,-100.0,-100.0,-100.0,-100.0,-100.0,-100.0,-100.0,-100.0,-100.0,-100.0,-100.0,-100.0,-100.0,-100.0,-100.0,-100.0,-100.0,-100.0,-100.0,-100.0,-100.0,-100.0,-100.0,-100.0,-100.0,-100.0,-100.0,-100.0,-100.0
2021.02.06 174204,42.0,24.0,24.273982044247788,-0.5341592826548672,-29.382477601769914,-0.3067002462566372,0.6964161406194689,9.970819699115044,-0.0008573305284070804,-0.004286900960955752,-0.0016418922653097354,-0.06973226579417165,0.030808538841330845,-1.502395015902224,1007.5446012389381,-61.0,-65.0,-100.0,-100.0,-100.0,-100.0,-89.0,-100.0,-100.0,-100.0,-100.0,-100.0,-80.0,-92.0,-100.0,-100.0,-100.0,-100.0,-62.0,-100.0,-72.0,-100.0,-100.0,-61.0,-70.0,-80.0,-100.0,-62.0,-72.0,-100.0,-100.0,-56.0,-67.0,-70.0,-78.0,-60.0,-62.0,-54.0,-67.0,-69.0,-100.0,-100.0,-72.0,-100.0,-100.0,-64.0,-70.0,-78.0,-100.0,-62.0,-72.0,-100.0,-100.0,-57.0,-67.0,-68.0,-81.0,-60.0,-62.0,-53.0,-67.0,-100.0,-91.0,-100.0,-75.0,-100.0,-100.0,-69.0,-100.0,-100.0,-83.0,-100.0,-100.0,-100.0,-100.0,-100.0,-100.0,-100.0,-68.0,-100.0,-67.0,-100.0,-100.0,-100.0,-76.0,-100.0,-84.0,-100.0,-100.0,-100.0,-100.0,-100.0,-100.0,-100.0,-100.0,-100.0,-100.0,-100.0,-100.0,-100.0,-100.0,-75.0,-72.0,-100.0,-100.0,-100.0,-100.0,-84.0,-100.0,-85.0,-100.0,-83.0,-85.0,-83.0,-100.0,-100.0,-100.0,-100.0,-100.0,-71.0,-87.0,-84.0,-100.0,-89.0,-100.0,-90.0,-100.0,-100.0,-100.0,-100.0,-100.0,-100.0,-100.0,-100.0,-100.0,-100.0,-100.0,-100.0,-100.0,-100.0,-100.0,-100.0,-100.0,-100.0,-100.0,-100.0,-100.0,-100.0,-100.0,-100.0,-100.0,-100.0,-100.0,-100.0,-100.0,-100.0,-100.0,-100.0,-100.0,-100.0,-100.0,-100.0,-100.0,-100.0,-100.0,-100.0,-100.0,-100.0,-100.0,-100.0,-100.0,-100.0,-100.0,-100.0
2021.02.06 174215,43.0,24.0,25.557948427350436,-0.44102563376068377,-32.02615342735042,-0.2951506453846154,0.5156899602564101,9.997407025641024,-0.0011785416987179491,-0.002836367522119657,-0.0021490292419829057,-0.05153616116597098,0.029537070697794314,-1.5184252313059619,1007.5387766666666,-57.0,-68.0,-100.0,-100.0,-100.0,-100.0,-100.0,-100.0,-81.0,-100.0,-100.0,-100.0,-100.0,-100.0,-100.0,-100.0,-100.0,-100.0,-66.0,-100.0,-78.0,-100.0,-100.0,-59.0,-70.0,-100.0,-90.0,-100.0,-72.0,-100.0,-100.0,-59.0,-59.0,-68.0,-78.0,-57.0,-63.0,-57.0,-59.0,-67.0,-86.0,-59.0,-78.0,-100.0,-100.0,-61.0,-70.0,-100.0,-88.0,-60.0,-72.0,-100.0,-100.0,-58.0,-59.0,-69.0,-78.0,-60.0,-63.0,-56.0,-59.0,-100.0,-100.0,-100.0,-82.0,-100.0,-100.0,-76.0,-100.0,-62.0,-100.0,-100.0,-100.0,-87.0,-100.0,-100.0,-100.0,-81.0,-72.0,-100.0,-67.0,-100.0,-100.0,-100.0,-68.0,-100.0,-100.0,-100.0,-100.0,-100.0,-100.0,-100.0,-100.0,-100.0,-100.0,-100.0,-100.0,-100.0,-100.0,-100.0,-100.0,-75.0,-68.0,-100.0,-100.0,-100.0,-100.0,-81.0,-77.0,-81.0,-100.0,-87.0,-75.0,-88.0,-100.0,-100.0,-100.0,-100.0,-100.0,-74.0,-87.0,-83.0,-80.0,-87.0,-86.0,-86.0,-100.0,-100.0,-100.0,-100.0,-100.0,-100.0,-100.0,-100.0,-100.0,-100.0,-100.0,-100.0,-100.0,-100.0,-100.0,-100.0,-100.0,-100.0,-100.0,-100.0,-100.0,-100.0,-100.0,-100.0,-100.0,-100.0,-100.0,-100.0,-100.0,-100.0,-100.0,-100.0,-100.0,-100.0,-100.0,-100.0,-100.0,-100.0,-100.0,-100.0,-100.0,-100.0,-100.0,-100.0,-100.0,-100.0,-100.0,-100.0
2021.02.06 174226,44.0,24.0,26.35894702631579,-1.4221052372807017,-30.258420666666662,-0.4058295805263158,0.654183082631579,9.986961250000002,0.0003945117930701757,-0.000927379246877193,-0.0048531313744210524,-0.06539402019820711,0.04063161364511435,-1.544329583644867,1007.543064736842,-59.0,-100.0,-100.0,-100.0,-100.0,-100.0,-85.0,-100.0,-82.0,-63.0,-100.0,-100.0,-100.0,-100.0,-100.0,-100.0,-100.0,-77.0,-68.0,-64.0,-78.0,-100.0,-100.0,-65.0,-70.0,-77.0,-100.0,-63.0,-73.0,-100.0,-100.0,-51.0,-48.0,-100.0,-77.0,-60.0,-68.0,-54.0,-62.0,-69.0,-100.0,-64.0,-78.0,-100.0,-100.0,-66.0,-70.0,-78.0,-100.0,-62.0,-72.0,-100.0,-100.0,-51.0,-48.0,-100.0,-76.0,-59.0,-68.0,-54.0,-62.0,-100.0,-100.0,-100.0,-83.0,-100.0,-100.0,-68.0,-100.0,-61.0,-75.0,-100.0,-100.0,-100.0,-100.0,-100.0,-100.0,-100.0,-100.0,-100.0,-66.0,-100.0,-100.0,-77.0,-71.0,-100.0,-90.0,-100.0,-75.0,-100.0,-100.0,-100.0,-100.0,-100.0,-100.0,-100.0,-100.0,-78.0,-100.0,-93.0,-91.0,-79.0,-68.0,-100.0,-100.0,-100.0,-100.0,-85.0,-100.0,-87.0,-100.0,-88.0,-81.0,-89.0,-76.0,-100.0,-85.0,-100.0,-100.0,-76.0,-89.0,-89.0,-80.0,-82.0,-100.0,-81.0,-84.0,-100.0,-100.0,-100.0,-100.0,-100.0,-100.0,-100.0,-100.0,-100.0,-100.0,-100.0,-100.0,-100.0,-100.0,-100.0,-100.0,-100.0,-100.0,-100.0,-100.0,-100.0,-100.0,-100.0,-100.0,-100.0,-100.0,-100.0,-100.0,-100.0,-100.0,-100.0,-100.0,-100.0,-100.0,-100.0,-100.0,-100.0,-100.0,-100.0,-100.0,-100.0,-100.0,-100.0,-100.0,-100.0,-100.0,-100.0
2021.02.06 174439,45.0,24.0,25.316841842105262,-1.4378947118421053,-27.613683798245617,-0.3203707718421053,0.7611063563157895,9.974044728070176,0.002264622789473684,2.1066517543859376e-05,-0.0013701117543859652,-0.0761333120877193,0.032114729491228074,-1.5396945936754387,1007.5338212280702,-62.0,-81.0,-100.0,-100.0,-100.0,-100.0,-89.0,-100.0,-86.0,-60.0,-100.0,-100.0,-100.0,-90.0,-100.0,-100.0,-100.0,-77.0,-67.0,-70.0,-84.0,-100.0,-100.0,-63.0,-69.0,-80.0,-100.0,-60.0,-70.0,-83.0,-100.0,-44.0,-41.0,-71.0,-72.0,-66.0,-65.0,-53.0,-59.0,-66.0,-100.0,-70.0,-84.0,-100.0,-100.0,-63.0,-69.0,-79.0,-100.0,-60.0,-70.0,-82.0,-100.0,-43.0,-41.0,-71.0,-72.0,-62.0,-65.0,-54.0,-59.0,-100.0,-100.0,-100.0,-100.0,-100.0,-100.0,-61.0,-100.0,-68.0,-74.0,-100.0,-100.0,-100.0,-100.0,-100.0,-100.0,-89.0,-76.0,-100.0,-60.0,-77.0,-89.0,-100.0,-61.0,-100.0,-100.0,-100.0,-78.0,-100.0,-100.0,-100.0,-100.0,-100.0,-100.0,-100.0,-100.0,-85.0,-100.0,-100.0,-100.0,-68.0,-70.0,-89.0,-100.0,-100.0,-100.0,-80.0,-61.0,-79.0,-100.0,-100.0,-73.0,-100.0,-75.0,-100.0,-100.0,-63.0,-100.0,-83.0,-85.0,-100.0,-75.0,-77.0,-100.0,-77.0,-81.0,-91.0,-90.0,-100.0,-100.0,-100.0,-100.0,-100.0,-100.0,-100.0,-100.0,-100.0,-100.0,-100.0,-100.0,-100.0,-100.0,-100.0,-100.0,-100.0,-100.0,-100.0,-100.0,-100.0,-100.0,-100.0,-100.0,-100.0,-100.0,-100.0,-100.0,-100.0,-100.0,-100.0,-100.0,-100.0,-100.0,-100.0,-100.0,-100.0,-100.0,-100.0,-100.0,-100.0,-100.0,-100.0,-100.0,-100.0
2021.02.06 174452,45.0,23.0,13.0403475,-33.793564800000006,-28.32521712173913,-0.24250880748695652,0.6151620670434783,9.987311382608695,0.0011571407652173904,-0.0033046837304347826,-0.0032278262347826096,-0.06151357628695653,0.024289608939130434,-2.7737726418347823,1007.5291159999997,-72.0,-83.0,-100.0,-100.0,-100.0,-100.0,-100.0,-100.0,-88.0,-58.0,-100.0,-100.0,-100.0,-100.0,-100.0,-100.0,-100.0,-78.0,-67.0,-69.0,-83.0,-100.0,-100.0,-65.0,-71.0,-78.0,-100.0,-61.0,-69.0,-100.0,-100.0,-43.0,-40.0,-70.0,-73.0,-64.0,-67.0,-54.0,-57.0,-67.0,-100.0,-66.0,-83.0,-100.0,-100.0,-100.0,-71.0,-76.0,-100.0,-61.0,-69.0,-100.0,-100.0,-44.0,-40.0,-70.0,-73.0,-64.0,-68.0,-53.0,-57.0,-100.0,-89.0,-100.0,-100.0,-100.0,-100.0,-62.0,-100.0,-66.0,-75.0,-100.0,-100.0,-100.0,-100.0,-100.0,-100.0,-81.0,-76.0,-100.0,-57.0,-72.0,-89.0,-81.0,-60.0,-100.0,-100.0,-100.0,-78.0,-100.0,-100.0,-100.0,-100.0,-100.0,-100.0,-100.0,-100.0,-100.0,-100.0,-100.0,-100.0,-71.0,-72.0,-87.0,-100.0,-100.0,-100.0,-81.0,-68.0,-80.0,-100.0,-100.0,-73.0,-100.0,-74.0,-100.0,-76.0,-68.0,-100.0,-84.0,-84.0,-100.0,-77.0,-77.0,-90.0,-77.0,-82.0,-100.0,-90.0,-79.0,-100.0,-100.0,-100.0,-100.0,-100.0,-100.0,-100.0,-100.0,-100.0,-100.0,-100.0,-100.0,-100.0,-100.0,-100.0,-100.0,-100.0,-100.0,-100.0,-100.0,-100.0,-100.0,-100.0,-100.0,-100.0,-100.0,-100.0,-100.0,-100.0,-100.0,-100.0,-100.0,-100.0,-100.0,-100.0,-100.0,-100.0,-100.0,-100.0,-100.0,-100.0,-100.0,-100.0,-100.0
2021.02.06 174503,45.0,22.0,11.404247513274338,-35.19929171681416,-29.12654819469027,-0.23836806548672565,0.9523916666371681,9.959526331858408,0.003802547115044248,-0.002984091433628318,-0.004058312477876106,-0.09531524545132745,0.023940350026548672,-2.821707839477877,1007.5264930973451,-62.0,-100.0,-100.0,-100.0,-100.0,-100.0,-100.0,-100.0,-80.0,-65.0,-100.0,-100.0,-100.0,-100.0,-100.0,-100.0,-88.0,-77.0,-63.0,-71.0,-75.0,-100.0,-100.0,-63.0,-64.0,-100.0,-100.0,-63.0,-74.0,-100.0,-100.0,-56.0,-56.0,-77.0,-72.0,-58.0,-58.0,-61.0,-63.0,-68.0,-100.0,-64.0,-76.0,-100.0,-100.0,-62.0,-64.0,-100.0,-100.0,-63.0,-74.0,-83.0,-100.0,-55.0,-57.0,-79.0,-72.0,-58.0,-60.0,-61.0,-63.0,-100.0,-84.0,-100.0,-100.0,-100.0,-100.0,-61.0,-100.0,-65.0,-100.0,-100.0,-100.0,-86.0,-100.0,-100.0,-100.0,-100.0,-76.0,-100.0,-62.0,-100.0,-100.0,-100.0,-69.0,-100.0,-86.0,-100.0,-78.0,-100.0,-100.0,-100.0,-100.0,-100.0,-100.0,-100.0,-100.0,-73.0,-100.0,-100.0,-100.0,-71.0,-76.0,-100.0,-100.0,-100.0,-100.0,-78.0,-100.0,-78.0,-92.0,-100.0,-69.0,-100.0,-70.0,-100.0,-76.0,-100.0,-100.0,-82.0,-87.0,-89.0,-74.0,-83.0,-87.0,-83.0,-81.0,-100.0,-100.0,-76.0,-93.0,-100.0,-100.0,-100.0,-100.0,-100.0,-100.0,-100.0,-100.0,-100.0,-100.0,-100.0,-100.0,-100.0,-100.0,-100.0,-100.0,-100.0,-100.0,-100.0,-100.0,-100.0,-100.0,-100.0,-100.0,-100.0,-100.0,-100.0,-100.0,-100.0,-100.0,-100.0,-100.0,-100.0,-100.0,-100.0,-100.0,-100.0,-100.0,-100.0,-100.0,-100.0,-100.0,-100.0
2021.02.06 174515,45.0,21.0,14.00637899137931,-34.79793057758621,-34.67844791379311,-0.18679471574137932,0.5959680237068965,9.991081728448275,0.0009903198448275878,-0.002265432068965517,-0.0029102107068965507,-0.05958180793965518,0.018703952827586204,-2.754169616224138,1007.5254862931035,-59.0,-100.0,-100.0,-100.0,-100.0,-100.0,-100.0,-100.0,-87.0,-64.0,-100.0,-100.0,-100.0,-100.0,-100.0,-100.0,-100.0,-83.0,-69.0,-76.0,-84.0,-100.0,-100.0,-71.0,-79.0,-89.0,-100.0,-72.0,-84.0,-100.0,-100.0,-55.0,-65.0,-100.0,-85.0,-71.0,-73.0,-66.0,-65.0,-100.0,-100.0,-76.0,-85.0,-100.0,-100.0,-72.0,-80.0,-88.0,-100.0,-73.0,-85.0,-100.0,-100.0,-54.0,-65.0,-100.0,-84.0,-71.0,-73.0,-66.0,-65.0,-100.0,-100.0,-100.0,-100.0,-100.0,-100.0,-64.0,-100.0,-65.0,-100.0,-100.0,-100.0,-100.0,-100.0,-100.0,-100.0,-100.0,-81.0,-100.0,-64.0,-75.0,-100.0,-100.0,-66.0,-100.0,-100.0,-100.0,-83.0,-100.0,-100.0,-100.0,-100.0,-100.0,-100.0,-100.0,-100.0,-100.0,-100.0,-100.0,-100.0,-67.0,-100.0,-100.0,-100.0,-100.0,-100.0,-87.0,-71.0,-88.0,-100.0,-100.0,-74.0,-100.0,-78.0,-100.0,-77.0,-70.0,-100.0,-100.0,-86.0,-100.0,-72.0,-82.0,-100.0,-82.0,-83.0,-100.0,-100.0,-100.0,-100.0,-89.0,-100.0,-100.0,-100.0,-100.0,-100.0,-100.0,-100.0,-100.0,-100.0,-100.0,-100.0,-100.0,-100.0,-100.0,-100.0,-100.0,-100.0,-100.0,-100.0,-100.0,-100.0,-100.0,-100.0,-100.0,-100.0,-100.0,-100.0,-100.0,-100.0,-100.0,-100.0,-100.0,-100.0,-100.0,-100.0,-100.0,-100.0,-100.0,-100.0,-100.0,-100.0,-100.0
2021.02.06 174529,45.0,20.0,13.723928254464285,-32.744999598214285,-32.00678524107143,-0.1576159658214286,0.5406785574107144,9.998448861607143,0.004320739901785714,0.0011893057589285713,-0.002987502339285714,-0.05401423225,0.015747030669642857,-2.738945322330357,1007.5253159821428,-59.0,-100.0,-100.0,-100.0,-100.0,-100.0,-100.0,-100.0,-87.0,-60.0,-100.0,-100.0,-90.0,-100.0,-100.0,-100.0,-100.0,-85.0,-62.0,-76.0,-87.0,-100.0,-100.0,-78.0,-76.0,-100.0,-100.0,-100.0,-84.0,-100.0,-100.0,-56.0,-58.0,-100.0,-86.0,-61.0,-73.0,-63.0,-62.0,-61.0,-100.0,-100.0,-88.0,-100.0,-100.0,-78.0,-76.0,-93.0,-100.0,-100.0,-84.0,-100.0,-100.0,-56.0,-58.0,-100.0,-86.0,-68.0,-73.0,-63.0,-63.0,-100.0,-100.0,-100.0,-100.0,-100.0,-100.0,-68.0,-100.0,-64.0,-75.0,-100.0,-100.0,-100.0,-100.0,-100.0,-100.0,-100.0,-84.0,-100.0,-67.0,-70.0,-100.0,-100.0,-70.0,-100.0,-100.0,-100.0,-86.0,-100.0,-100.0,-100.0,-100.0,-100.0,-100.0,-100.0,-100.0,-89.0,-100.0,-100.0,-100.0,-72.0,-74.0,-100.0,-100.0,-100.0,-100.0,-87.0,-75.0,-87.0,-100.0,-100.0,-77.0,-100.0,-78.0,-100.0,-76.0,-76.0,-100.0,-100.0,-91.0,-100.0,-76.0,-79.0,-89.0,-79.0,-100.0,-100.0,-100.0,-86.0,-100.0,-100.0,-100.0,-100.0,-100.0,-100.0,-100.0,-100.0,-100.0,-100.0,-100.0,-100.0,-100.0,-100.0,-100.0,-100.0,-100.0,-100.0,-100.0,-100.0,-100.0,-100.0,-100.0,-100.0,-100.0,-100.0,-100.0,-100.0,-100.0,-100.0,-100.0,-100.0,-100.0,-100.0,-100.0,-100.0,-100.0,-100.0,-100.0,-100.0,-100.0,-100.0,-100.0,-100.0
2021.02.06 174542,45.0,19.0,11.499291809734514,-30.513450752212393,-31.26849524778761,-0.28023609232743363,0.685355864141593,9.989232309734513,0.005186450283185842,-0.004670726557522125,-0.00022014005309734574,-0.06863910553097345,0.028107958752212385,-2.782707815681416,1007.520440619469,-56.0,-88.0,-100.0,-100.0,-100.0,-100.0,-100.0,-100.0,-85.0,-57.0,-100.0,-100.0,-100.0,-100.0,-100.0,-100.0,-100.0,-85.0,-75.0,-83.0,-100.0,-100.0,-100.0,-81.0,-85.0,-100.0,-100.0,-100.0,-89.0,-100.0,-100.0,-50.0,-65.0,-100.0,-89.0,-78.0,-84.0,-72.0,-64.0,-79.0,-100.0,-100.0,-100.0,-100.0,-100.0,-81.0,-85.0,-100.0,-100.0,-100.0,-90.0,-100.0,-100.0,-50.0,-65.0,-100.0,-88.0,-70.0,-83.0,-72.0,-64.0,-100.0,-100.0,-100.0,-100.0,-100.0,-100.0,-55.0,-100.0,-58.0,-81.0,-100.0,-100.0,-100.0,-100.0,-100.0,-100.0,-100.0,-78.0,-100.0,-70.0,-75.0,-92.0,-100.0,-71.0,-100.0,-100.0,-100.0,-84.0,-100.0,-100.0,-100.0,-100.0,-100.0,-100.0,-100.0,-100.0,-90.0,-100.0,-100.0,-100.0,-70.0,-100.0,-91.0,-100.0,-100.0,-100.0,-88.0,-75.0,-87.0,-100.0,-100.0,-78.0,-100.0,-100.0,-100.0,-78.0,-75.0,-100.0,-100.0,-91.0,-87.0,-100.0,-84.0,-100.0,-84.0,-100.0,-100.0,-100.0,-87.0,-100.0,-100.0,-89.0,-100.0,-100.0,-100.0,-100.0,-100.0,-100.0,-100.0,-100.0,-100.0,-100.0,-100.0,-100.0,-100.0,-100.0,-100.0,-100.0,-100.0,-100.0,-100.0,-100.0,-100.0,-100.0,-100.0,-100.0,-100.0,-100.0,-100.0,-100.0,-100.0,-100.0,-100.0,-100.0,-100.0,-100.0,-100.0,-100.0,-100.0,-100.0,-100.0,-100.0,-100.0
2021.02.06 174601,45.0,18.0,9.598974122222224,-31.029230333333338,-31.359486623931627,-0.2955189951282051,0.8418229335897436,9.960367405982906,-0.0021757666068376066,-0.0029460192735042733,-0.004253108461538462,-0.08427765785470086,0.029685237170940168,-2.8452012762649574,1007.5107262393162,-59.0,-100.0,-100.0,-100.0,-100.0,-100.0,-100.0,-100.0,-87.0,-54.0,-100.0,-100.0,-100.0,-100.0,-100.0,-100.0,-100.0,-83.0,-80.0,-100.0,-100.0,-100.0,-100.0,-82.0,-85.0,-100.0,-100.0,-100.0,-100.0,-100.0,-100.0,-52.0,-54.0,-100.0,-100.0,-80.0,-81.0,-74.0,-69.0,-80.0,-100.0,-100.0,-100.0,-100.0,-100.0,-81.0,-85.0,-100.0,-100.0,-100.0,-100.0,-100.0,-100.0,-53.0,-54.0,-100.0,-100.0,-81.0,-81.0,-74.0,-69.0,-100.0,-100.0,-100.0,-100.0,-100.0,-100.0,-60.0,-100.0,-57.0,-100.0,-100.0,-100.0,-100.0,-100.0,-100.0,-100.0,-84.0,-81.0,-100.0,-60.0,-100.0,-90.0,-100.0,-70.0,-100.0,-100.0,-100.0,-84.0,-100.0,-100.0,-100.0,-100.0,-100.0,-100.0,-100.0,-100.0,-100.0,-100.0,-100.0,-100.0,-70.0,-60.0,-100.0,-100.0,-100.0,-100.0,-87.0,-76.0,-89.0,-100.0,-100.0,-76.0,-100.0,-82.0,-100.0,-74.0,-76.0,-100.0,-100.0,-90.0,-87.0,-82.0,-82.0,-88.0,-82.0,-80.0,-100.0,-100.0,-100.0,-100.0,-100.0,-100.0,-100.0,-100.0,-100.0,-100.0,-100.0,-100.0,-100.0,-100.0,-100.0,-100.0,-100.0,-100.0,-100.0,-100.0,-100.0,-100.0,-100.0,-100.0,-100.0,-100.0,-100.0,-100.0,-100.0,-100.0,-100.0,-100.0,-100.0,-100.0,-100.0,-100.0,-100.0,-100.0,-100.0,-100.0,-100.0,-100.0,-100.0,-100.0,-100.0,-100.0,-100.0
2021.02.06 174613,45.0,17.0,8.325789325438596,-31.840525815789473,-31.85631533333333,-0.17463504438596492,0.7852171280701755,9.968227118421053,0.0017984334824561394,-0.0020365849298245612,-0.003143769254385966,-0.07858248584210525,0.017543559421052634,-2.882241157096491,1007.5100715789473,-53.0,-92.0,-100.0,-100.0,-100.0,-100.0,-100.0,-100.0,-100.0,-60.0,-100.0,-100.0,-100.0,-100.0,-100.0,-100.0,-100.0,-100.0,-81.0,-78.0,-100.0,-100.0,-100.0,-84.0,-100.0,-100.0,-100.0,-82.0,-100.0,-100.0,-100.0,-61.0,-66.0,-100.0,-100.0,-73.0,-86.0,-74.0,-83.0,-81.0,-100.0,-77.0,-100.0,-100.0,-100.0,-84.0,-100.0,-100.0,-100.0,-83.0,-100.0,-100.0,-100.0,-59.0,-66.0,-100.0,-100.0,-74.0,-87.0,-75.0,-84.0,-100.0,-100.0,-100.0,-100.0,-100.0,-100.0,-64.0,-100.0,-57.0,-78.0,-100.0,-100.0,-100.0,-100.0,-100.0,-100.0,-100.0,-83.0,-100.0,-75.0,-72.0,-100.0,-100.0,-76.0,-100.0,-100.0,-100.0,-86.0,-100.0,-100.0,-100.0,-100.0,-100.0,-100.0,-100.0,-100.0,-88.0,-100.0,-89.0,-100.0,-67.0,-59.0,-100.0,-100.0,-100.0,-100.0,-100.0,-100.0,-100.0,-90.0,-100.0,-79.0,-100.0,-100.0,-100.0,-72.0,-79.0,-100.0,-100.0,-100.0,-77.0,-100.0,-81.0,-89.0,-81.0,-83.0,-100.0,-100.0,-87.0,-100.0,-100.0,-100.0,-92.0,-100.0,-100.0,-100.0,-100.0,-100.0,-100.0,-100.0,-100.0,-100.0,-100.0,-100.0,-100.0,-100.0,-100.0,-100.0,-100.0,-100.0,-100.0,-100.0,-100.0,-100.0,-100.0,-100.0,-100.0,-100.0,-100.0,-100.0,-100.0,-100.0,-100.0,-100.0,-100.0,-100.0,-100.0,-100.0,-100.0,-100.0,-100.0,-100.0,-100.0
2021.02.06 174709,46.0,17.0,21.317480086614175,-4.213228289763781,-29.000787000000003,-0.4170185727086614,0.6733002406299212,9.983484901574805,-0.0018738065905511813,0.0010106895826771654,-0.00294521437007874,-0.06732124998425196,0.041714231133858276,-1.6780919024488186,1007.4829580314961,-52.0,-84.0,-100.0,-100.0,-100.0,-100.0,-92.0,-100.0,-91.0,-58.0,-100.0,-100.0,-100.0,-100.0,-100.0,-100.0,-100.0,-100.0,-85.0,-78.0,-100.0,-100.0,-100.0,-84.0,-100.0,-100.0,-100.0,-84.0,-100.0,-100.0,-100.0,-50.0,-59.0,-100.0,-100.0,-68.0,-82.0,-75.0,-79.0,-84.0,-100.0,-78.0,-100.0,-100.0,-100.0,-86.0,-100.0,-100.0,-100.0,-100.0,-100.0,-100.0,-100.0,-51.0,-59.0,-100.0,-100.0,-78.0,-82.0,-75.0,-79.0,-100.0,-100.0,-100.0,-86.0,-100.0,-90.0,-62.0,-100.0,-58.0,-72.0,-100.0,-100.0,-100.0,-100.0,-100.0,-100.0,-89.0,-76.0,-100.0,-62.0,-74.0,-100.0,-100.0,-78.0,-100.0,-100.0,-100.0,-100.0,-100.0,-100.0,-100.0,-100.0,-100.0,-100.0,-100.0,-100.0,-100.0,-100.0,-89.0,-100.0,-70.0,-62.0,-100.0,-100.0,-100.0,-100.0,-100.0,-100.0,-100.0,-100.0,-100.0,-78.0,-100.0,-100.0,-100.0,-74.0,-78.0,-100.0,-90.0,-100.0,-85.0,-100.0,-76.0,-100.0,-77.0,-85.0,-100.0,-100.0,-85.0,-100.0,-100.0,-100.0,-100.0,-90.0,-91.0,-90.0,-88.0,-84.0,-100.0,-100.0,-100.0,-100.0,-100.0,-100.0,-100.0,-100.0,-100.0,-100.0,-100.0,-100.0,-100.0,-100.0,-100.0,-100.0,-100.0,-100.0,-100.0,-100.0,-100.0,-100.0,-100.0,-100.0,-100.0,-100.0,-100.0,-100.0,-100.0,-100.0,-100.0,-100.0,-100.0,-100.0,-100.0
2021.02.06 174822,47.0,18.0,-7.131964167857143,11.17339269642857,-40.62107060714285,-0.24387399089285713,0.8077470885714285,9.97886707589286,-0.0020988000625,0.002732831669642857,-0.002742067821428572,-0.08075565541071428,0.024455640875,0.5087874669910714,1007.4806281250001,-51.0,-89.0,-100.0,-100.0,-100.0,-100.0,-100.0,-100.0,-89.0,-53.0,-100.0,-100.0,-100.0,-100.0,-100.0,-100.0,-100.0,-87.0,-100.0,-78.0,-100.0,-100.0,-100.0,-100.0,-90.0,-100.0,-100.0,-84.0,-100.0,-100.0,-100.0,-57.0,-63.0,-100.0,-100.0,-100.0,-81.0,0.0,-71.0,-100.0,-100.0,-79.0,-100.0,-100.0,-100.0,-100.0,-88.0,-100.0,-100.0,-85.0,-100.0,-100.0,-100.0,-57.0,-63.0,-100.0,-92.0,-77.0,-81.0,0.0,-71.0,-100.0,-100.0,-100.0,-100.0,-100.0,-100.0,-62.0,-100.0,-58.0,-100.0,-100.0,-100.0,-100.0,-100.0,-100.0,-100.0,-83.0,-80.0,-100.0,-67.0,-73.0,-100.0,-100.0,-73.0,-100.0,-100.0,-100.0,-87.0,-100.0,-100.0,-100.0,-100.0,-100.0,-100.0,-100.0,-100.0,-89.0,-100.0,-91.0,-100.0,-65.0,-69.0,-100.0,-100.0,-100.0,-100.0,-100.0,-79.0,-100.0,-100.0,-100.0,-75.0,-100.0,-100.0,-100.0,-74.0,-78.0,-100.0,-100.0,-89.0,-100.0,-100.0,-83.0,-88.0,-83.0,-84.0,-100.0,-100.0,-100.0,-100.0,-100.0,-100.0,-100.0,-100.0,-100.0,-100.0,-100.0,-100.0,-85.0,-100.0,-100.0,-100.0,-100.0,-100.0,-100.0,-100.0,-100.0,-100.0,-100.0,-100.0,-100.0,-100.0,-100.0,-100.0,-100.0,-100.0,-100.0,-100.0,-100.0,-100.0,-100.0,-100.0,-100.0,-100.0,-100.0,-100.0,-100.0,-100.0,-100.0,-100.0,-100.0,-100.0,-100.0
2021.02.06 174834,47.0,19.0,-9.57126027394958,10.76571400420168,-35.30621815126051,-0.1576800981260504,0.7339156453781515,9.979880613445378,-0.0008331176638655465,-0.0013828061092436982,-0.00324707005882353,-0.07346100954621848,0.015823074546218487,0.645894951168067,1007.4865363865547,-52.0,-83.0,-100.0,-100.0,-100.0,-100.0,-100.0,-100.0,-88.0,-59.0,-100.0,-100.0,-100.0,-100.0,-100.0,-100.0,-100.0,-88.0,-78.0,-76.0,-100.0,-100.0,-100.0,-79.0,-87.0,-100.0,-100.0,-88.0,-88.0,-100.0,-100.0,-49.0,-57.0,-88.0,-89.0,-79.0,-77.0,0.0,-76.0,-80.0,-100.0,-74.0,-100.0,-100.0,-100.0,-78.0,-88.0,-93.0,-100.0,-100.0,-100.0,-100.0,-100.0,-51.0,-57.0,-86.0,-88.0,-80.0,-78.0,0.0,-76.0,-100.0,-100.0,-100.0,-100.0,-100.0,-100.0,-65.0,-100.0,-59.0,-74.0,-100.0,-100.0,-100.0,-100.0,-100.0,-100.0,-82.0,-84.0,-100.0,-71.0,-70.0,-100.0,-100.0,-68.0,-100.0,-100.0,-100.0,-88.0,-100.0,-100.0,-100.0,-100.0,-100.0,-100.0,-100.0,-100.0,-100.0,-100.0,-100.0,-100.0,-69.0,-66.0,-100.0,-100.0,-100.0,-100.0,-100.0,-77.0,-100.0,-100.0,-100.0,-77.0,-100.0,-100.0,-100.0,-72.0,-100.0,-100.0,-100.0,-91.0,-100.0,-87.0,-80.0,-85.0,-79.0,-82.0,-100.0,-100.0,-85.0,-100.0,-100.0,-100.0,-100.0,-100.0,-100.0,-100.0,-100.0,-100.0,-88.0,-100.0,-100.0,-100.0,-100.0,-100.0,-100.0,-100.0,-100.0,-100.0,-100.0,-100.0,-100.0,-100.0,-100.0,-100.0,-100.0,-100.0,-100.0,-100.0,-100.0,-100.0,-100.0,-100.0,-100.0,-100.0,-100.0,-100.0,-100.0,-100.0,-100.0,-100.0,-100.0,-100.0,-100.0
2021.02.06 174845,47.0,20.0,-7.588420944736842,8.236315635087719,-27.488420631578943,-0.17679829162280702,0.6293582350877193,9.985407105263155,-0.0029223785087719297,-0.001039911684210527,-0.002940133166666667,-0.06299415677192982,0.017698711508771926,0.6753265300877193,1007.4919013157896,-51.0,-89.0,-100.0,-100.0,-100.0,-100.0,-100.0,-100.0,-87.0,-61.0,-100.0,-100.0,-100.0,-100.0,-100.0,-100.0,-100.0,-84.0,-82.0,-100.0,-100.0,-100.0,-100.0,-79.0,-80.0,-100.0,-100.0,-100.0,-84.0,-100.0,-100.0,-53.0,-53.0,-100.0,-88.0,-76.0,-79.0,-70.0,-68.0,-79.0,-100.0,-100.0,-100.0,-100.0,-100.0,-79.0,-80.0,-100.0,-100.0,-100.0,-84.0,-100.0,-100.0,-55.0,-53.0,-100.0,-87.0,-77.0,-80.0,-71.0,-68.0,-100.0,-100.0,-100.0,-100.0,-100.0,-100.0,-62.0,-100.0,-57.0,-100.0,-100.0,-100.0,-100.0,-100.0,-100.0,-100.0,-88.0,-69.0,-100.0,-68.0,-76.0,-100.0,-100.0,-69.0,-100.0,-100.0,-100.0,-84.0,-100.0,-100.0,-100.0,-100.0,-100.0,-100.0,-100.0,-100.0,-85.0,-100.0,-89.0,-100.0,-70.0,-73.0,-100.0,-100.0,-100.0,-100.0,-89.0,-77.0,-89.0,-100.0,-100.0,-79.0,-100.0,-100.0,-100.0,-79.0,-100.0,-100.0,-100.0,-100.0,-86.0,-87.0,-87.0,-90.0,-86.0,-100.0,-100.0,-100.0,-85.0,-100.0,-100.0,-100.0,-100.0,-100.0,-100.0,-100.0,-100.0,-100.0,-100.0,-100.0,-100.0,-100.0,-100.0,-100.0,-100.0,-100.0,-100.0,-100.0,-100.0,-100.0,-100.0,-100.0,-100.0,-100.0,-100.0,-100.0,-100.0,-100.0,-100.0,-100.0,-100.0,-100.0,-100.0,-100.0,-100.0,-100.0,-100.0,-100.0,-100.0,-100.0,-100.0,-100.0,-100.0
2021.02.06 174859,47.0,21.0,-7.699645912389381,11.327787340707966,-29.736105858407075,-0.17601098068141594,0.46715903610619464,9.995080314159292,0.004294483309734514,-0.0003027743539823005,-0.003712334805309735,-0.0467102604159292,0.017607547017699114,0.5691546979823008,1007.4952384955753,-57.0,-83.0,-100.0,-100.0,-100.0,-100.0,-100.0,-100.0,-86.0,-60.0,-100.0,-100.0,-100.0,-100.0,-100.0,-100.0,-100.0,-78.0,-79.0,-78.0,-86.0,-100.0,-100.0,-67.0,-82.0,-90.0,-100.0,-80.0,-86.0,-100.0,-100.0,-49.0,-47.0,-83.0,-86.0,-74.0,-77.0,-66.0,-63.0,-83.0,-100.0,-80.0,-87.0,-100.0,-100.0,-66.0,-82.0,-91.0,-100.0,-80.0,-86.0,-100.0,-100.0,-49.0,-47.0,-81.0,-86.0,-72.0,-78.0,-69.0,-63.0,-100.0,-100.0,-100.0,-100.0,-100.0,-100.0,-68.0,-100.0,-66.0,-81.0,-100.0,-100.0,-100.0,-100.0,-100.0,-100.0,-88.0,-81.0,-100.0,-63.0,-71.0,-100.0,-88.0,-72.0,-100.0,-100.0,-100.0,-78.0,-100.0,-100.0,-100.0,-100.0,-100.0,-100.0,-100.0,-100.0,-81.0,-100.0,-100.0,-100.0,-76.0,-64.0,-100.0,-100.0,-100.0,-100.0,-89.0,-73.0,-90.0,-100.0,-100.0,-80.0,-100.0,-100.0,-100.0,-100.0,-73.0,-100.0,-90.0,-91.0,-90.0,-100.0,-79.0,-90.0,-78.0,-84.0,-100.0,-100.0,-100.0,-100.0,-100.0,-100.0,-100.0,-100.0,-100.0,-100.0,-100.0,-100.0,-100.0,-100.0,-100.0,-100.0,-100.0,-100.0,-100.0,-100.0,-100.0,-100.0,-100.0,-100.0,-100.0,-100.0,-100.0,-100.0,-100.0,-100.0,-100.0,-100.0,-100.0,-100.0,-100.0,-100.0,-100.0,-100.0,-100.0,-100.0,-100.0,-100.0,-100.0,-100.0,-100.0,-100.0,-100.0
2021.02.06 174923,48.0,21.0,26.8242100877193,2.2484210107894738,-26.813157499999996,-0.1895467557982456,0.6415606349999999,9.985911092105262,-0.0004253318070175441,-0.0003593892192982455,-0.0017452071315789473,-0.06415301255263159,0.01897418452631579,-1.4184476105701753,1007.5024407017544,-59.0,-79.0,-100.0,-100.0,-100.0,-100.0,-88.0,-100.0,-85.0,-61.0,-100.0,-100.0,-100.0,-100.0,-100.0,-100.0,-100.0,-78.0,-72.0,-60.0,-83.0,-100.0,-100.0,-65.0,-76.0,-87.0,-100.0,-77.0,-85.0,-100.0,-100.0,-46.0,-49.0,-80.0,-83.0,-66.0,-68.0,-67.0,-71.0,-71.0,-100.0,-68.0,-83.0,-100.0,-100.0,-68.0,-76.0,-86.0,-100.0,-79.0,-85.0,-100.0,-100.0,-46.0,-50.0,-79.0,-82.0,-68.0,-68.0,-66.0,-71.0,-100.0,-91.0,-100.0,-93.0,-100.0,-100.0,-70.0,-100.0,-64.0,-100.0,-100.0,-100.0,-100.0,-100.0,-100.0,-100.0,-100.0,-76.0,-100.0,-62.0,-100.0,-100.0,-100.0,-68.0,-100.0,-100.0,-100.0,-77.0,-100.0,-100.0,-100.0,-100.0,-100.0,-100.0,-100.0,-100.0,-88.0,-100.0,-100.0,-100.0,-67.0,-66.0,-100.0,-100.0,-100.0,-100.0,-86.0,-73.0,-87.0,-100.0,-100.0,-80.0,-100.0,-100.0,-100.0,-100.0,-73.0,-100.0,-83.0,-87.0,-87.0,-100.0,-82.0,-87.0,-82.0,-80.0,-100.0,-100.0,-89.0,-100.0,-100.0,-100.0,-100.0,-100.0,-100.0,-100.0,-100.0,-100.0,-100.0,-100.0,-100.0,-100.0,-100.0,-100.0,-100.0,-100.0,-100.0,-100.0,-100.0,-100.0,-100.0,-100.0,-100.0,-100.0,-100.0,-100.0,-100.0,-100.0,-100.0,-100.0,-100.0,-100.0,-100.0,-100.0,-100.0,-100.0,-100.0,-100.0,-100.0,-100.0,-100.0,-100.0,-100.0
2021.02.06 174936,49.0,21.0,24.223008619469024,-3.0881415442477875,-31.29132692035398,-0.2112682655575221,0.5769778506194692,9.985248920353982,0.0027213686283185847,-0.002443493725663717,-0.004269139619469026,-0.05771761844247788,0.02115465410619469,-1.6224124484601772,1007.5151068141594,-70.0,-88.0,-100.0,-100.0,-100.0,-100.0,-100.0,-100.0,-100.0,-56.0,-100.0,-100.0,-100.0,-100.0,-100.0,-100.0,-100.0,-100.0,-67.0,-73.0,-83.0,-100.0,-100.0,-73.0,-82.0,-100.0,-100.0,-80.0,-86.0,-100.0,-100.0,-47.0,-54.0,-80.0,-86.0,-73.0,-71.0,-61.0,-76.0,-68.0,-100.0,-77.0,-82.0,-100.0,-100.0,-73.0,-82.0,-87.0,-100.0,-78.0,-88.0,-100.0,-100.0,-46.0,-54.0,-79.0,-86.0,-73.0,-71.0,-62.0,-76.0,-100.0,-100.0,-100.0,-100.0,-100.0,-100.0,-66.0,-100.0,-56.0,-83.0,-100.0,-100.0,-100.0,-100.0,-100.0,-100.0,-81.0,-83.0,-100.0,-71.0,-100.0,-100.0,-100.0,-66.0,-100.0,-100.0,-100.0,-100.0,-100.0,-100.0,-100.0,-100.0,-100.0,-100.0,-100.0,-100.0,-100.0,-100.0,-100.0,-100.0,-64.0,-76.0,-100.0,-100.0,-100.0,-100.0,-85.0,-70.0,-85.0,-100.0,-100.0,-69.0,-100.0,-84.0,-100.0,-73.0,-70.0,-100.0,-85.0,-88.0,-100.0,-84.0,-74.0,-84.0,-74.0,-76.0,-100.0,-100.0,-75.0,-100.0,-100.0,-100.0,-100.0,-100.0,-100.0,-100.0,-100.0,-100.0,-87.0,-100.0,-100.0,-100.0,-100.0,-100.0,-100.0,-100.0,-100.0,-100.0,-100.0,-100.0,-100.0,-100.0,-100.0,-100.0,-100.0,-100.0,-100.0,-100.0,-100.0,-100.0,-100.0,-100.0,-100.0,-100.0,-100.0,-100.0,-100.0,-100.0,-100.0,-100.0,-100.0,-100.0,-100.0
2021.02.06 174949,50.0,21.0,34.133845615384615,-5.543076829059828,-28.07384584615384,-0.19287213685470087,0.6125455356410255,9.993007256410257,0.0028416823333333335,-0.00031459962393162304,-0.0030522581880341884,-0.061204738435897445,0.019266553299145298,-1.682016433803419,1007.5173078632479,-64.0,-86.0,-100.0,-100.0,-100.0,-100.0,-100.0,-100.0,-84.0,-55.0,-100.0,-100.0,-100.0,-100.0,-100.0,-100.0,-100.0,-100.0,-77.0,-77.0,-85.0,-100.0,-100.0,-68.0,-82.0,-100.0,-100.0,-81.0,-85.0,-100.0,-100.0,-49.0,-57.0,-86.0,-85.0,-73.0,-70.0,-68.0,-74.0,-76.0,-100.0,-79.0,-85.0,-100.0,-100.0,-69.0,-83.0,-100.0,-100.0,-80.0,-86.0,-100.0,-100.0,-48.0,-57.0,-85.0,-84.0,-73.0,-70.0,-67.0,-75.0,-100.0,-100.0,-100.0,-92.0,-100.0,-100.0,-57.0,-100.0,-62.0,-75.0,-100.0,-100.0,-100.0,-100.0,-100.0,-100.0,-79.0,-83.0,-100.0,-63.0,-66.0,-100.0,-100.0,-64.0,-100.0,-100.0,-100.0,-100.0,-100.0,-100.0,-100.0,-100.0,-100.0,-100.0,-100.0,-100.0,-87.0,-100.0,-100.0,-100.0,-63.0,-73.0,-100.0,-100.0,-100.0,-100.0,-88.0,-68.0,-88.0,-100.0,-100.0,-65.0,-100.0,-80.0,-100.0,-72.0,-68.0,-100.0,-100.0,-88.0,-100.0,-81.0,-82.0,-85.0,-82.0,-84.0,-100.0,-100.0,-77.0,-100.0,-100.0,-100.0,-100.0,-100.0,-100.0,-100.0,-100.0,-100.0,-100.0,-100.0,-100.0,-100.0,-100.0,-100.0,-100.0,-100.0,-100.0,-100.0,-100.0,-100.0,-100.0,-100.0,-100.0,-100.0,-100.0,-100.0,-100.0,-100.0,-100.0,-100.0,-100.0,-100.0,-100.0,-100.0,-100.0,-100.0,-100.0,-100.0,-100.0,-100.0,-100.0,-100.0,-100.0
2021.02.06 175003,50.0,22.0,-6.067304262608696,11.56486935652174,-30.96626044347826,-0.23097465025217398,0.4904932205217391,9.987810999999999,0.001975167991304348,-0.002821301460869566,-0.004598295495652172,-0.049070137591304346,0.023153729591304347,0.473275032,1007.5218961739131,-64.0,-100.0,-100.0,-100.0,-100.0,-100.0,-100.0,-100.0,-88.0,-55.0,-100.0,-100.0,-100.0,-100.0,-100.0,-100.0,-100.0,-100.0,-69.0,-70.0,-89.0,-100.0,-100.0,-78.0,-81.0,-100.0,-100.0,-74.0,-100.0,-100.0,-100.0,-52.0,-59.0,-100.0,-89.0,-66.0,-70.0,-65.0,-79.0,-68.0,-100.0,-70.0,-88.0,-100.0,-100.0,-78.0,-81.0,-100.0,-100.0,-79.0,-100.0,-100.0,-100.0,-51.0,-59.0,-100.0,-90.0,-71.0,-70.0,-63.0,-79.0,-100.0,-100.0,-100.0,-100.0,-100.0,-100.0,-61.0,-100.0,-59.0,-72.0,-100.0,-100.0,-100.0,-100.0,-100.0,-100.0,-85.0,-79.0,-100.0,-66.0,-61.0,-100.0,-82.0,-60.0,-100.0,-100.0,-100.0,-100.0,-100.0,-100.0,-100.0,-100.0,-100.0,-100.0,-100.0,-100.0,-100.0,-100.0,-100.0,-100.0,-63.0,-78.0,-100.0,-100.0,-100.0,-100.0,-100.0,-77.0,-100.0,-100.0,-100.0,-78.0,-100.0,-100.0,-100.0,-76.0,-78.0,-100.0,-100.0,-86.0,-100.0,-100.0,-80.0,-86.0,-79.0,-82.0,-100.0,-100.0,-69.0,-100.0,-90.0,-100.0,-100.0,-100.0,-100.0,-100.0,-100.0,-100.0,-87.0,-100.0,-100.0,-100.0,-100.0,-100.0,-100.0,-100.0,-100.0,-100.0,-100.0,-100.0,-100.0,-100.0,-100.0,-100.0,-100.0,-100.0,-100.0,-100.0,-100.0,-100.0,-100.0,-100.0,-100.0,-100.0,-100.0,-100.0,-100.0,-100.0,-100.0,-100.0,-100.0,-100.0,-100.0
2021.02.06 175015,50.0,23.0,-3.164347757652174,15.970956208695654,-28.79113011304348,-0.2139440677826087,0.4616578232173913,9.996701091304345,-0.0011163398521739124,-0.003294061026086956,-0.002675385930434782,-0.04614493570434783,0.021392672556521736,0.2124640401217391,1007.5252585217393,-59.0,-83.0,-100.0,-87.0,-100.0,-100.0,-100.0,-100.0,-79.0,-54.0,-100.0,-100.0,-100.0,-100.0,-100.0,-100.0,-100.0,-100.0,-78.0,-69.0,-84.0,-100.0,-100.0,-65.0,-70.0,-83.0,-100.0,-75.0,-85.0,-100.0,-100.0,-44.0,-48.0,-73.0,-79.0,-62.0,-62.0,-65.0,-70.0,-78.0,-86.0,-69.0,-85.0,-100.0,-100.0,-64.0,-70.0,-100.0,-100.0,-75.0,-86.0,-100.0,-100.0,-45.0,-48.0,-73.0,-79.0,-66.0,-63.0,-67.0,-70.0,-100.0,-100.0,-100.0,-100.0,-100.0,-100.0,-57.0,-100.0,-64.0,-72.0,-100.0,-100.0,-88.0,-100.0,-100.0,-92.0,-100.0,-69.0,-100.0,-69.0,-66.0,-100.0,-100.0,-66.0,-100.0,-90.0,-100.0,-100.0,-100.0,-100.0,-100.0,-100.0,-100.0,-100.0,-100.0,-100.0,-100.0,-100.0,-100.0,-100.0,-67.0,-69.0,-100.0,-100.0,-100.0,-100.0,-85.0,-71.0,-85.0,-90.0,-100.0,-70.0,-100.0,-100.0,-100.0,-73.0,-71.0,-100.0,-86.0,-90.0,-100.0,-100.0,-76.0,-86.0,-76.0,-80.0,-100.0,-100.0,-100.0,-100.0,-100.0,-100.0,-100.0,-100.0,-100.0,-100.0,-100.0,-100.0,-89.0,-100.0,-100.0,-100.0,-100.0,-100.0,-100.0,-100.0,-100.0,-100.0,-100.0,-100.0,-100.0,-100.0,-100.0,-100.0,-100.0,-100.0,-100.0,-100.0,-100.0,-100.0,-100.0,-100.0,-100.0,-100.0,-100.0,-100.0,-100.0,-100.0,-100.0,-100.0,-100.0,-100.0,-100.0
2021.02.06 175039,50.0,24.0,29.503539451327434,-2.570973415044248,-23.3538050619469,-0.12547695013274338,0.6074677740707966,9.990079880530974,0.00021844185840708062,-0.005524853628318584,-0.004339422185840707,-0.06080325077876106,0.012528836592920353,-1.608398300353982,1007.5297582300885,-57.0,-87.0,-100.0,-100.0,-100.0,-100.0,-80.0,-100.0,-81.0,-60.0,-100.0,-100.0,-80.0,-89.0,-100.0,-100.0,-100.0,-74.0,-52.0,-69.0,-82.0,-89.0,-100.0,-57.0,-62.0,-78.0,-87.0,-60.0,-74.0,-80.0,-100.0,-44.0,-49.0,-73.0,-66.0,-55.0,-63.0,-47.0,-56.0,-52.0,-88.0,-69.0,-82.0,-100.0,-100.0,-58.0,-62.0,-77.0,-87.0,-61.0,-74.0,-77.0,-100.0,-43.0,-49.0,-73.0,-66.0,-57.0,-63.0,-47.0,-56.0,-100.0,-88.0,-100.0,-100.0,-100.0,-100.0,-57.0,-100.0,-68.0,-76.0,-100.0,-100.0,-86.0,-100.0,-100.0,-100.0,-100.0,-75.0,-100.0,-59.0,-70.0,-100.0,-100.0,-68.0,-100.0,-100.0,-100.0,-100.0,-100.0,-100.0,-100.0,-100.0,-100.0,-100.0,-100.0,-100.0,-100.0,-100.0,-92.0,-100.0,-63.0,-76.0,-100.0,-100.0,-100.0,-100.0,-78.0,-70.0,-78.0,-100.0,-86.0,-72.0,-85.0,-60.0,-100.0,-78.0,-69.0,-100.0,-91.0,-83.0,-100.0,-61.0,-74.0,-91.0,-75.0,-80.0,-100.0,-100.0,-100.0,-100.0,-90.0,-100.0,-100.0,-100.0,-100.0,-100.0,-100.0,-100.0,-87.0,-88.0,-88.0,-100.0,-100.0,-100.0,-100.0,-100.0,-100.0,-100.0,-100.0,-100.0,-100.0,-100.0,-100.0,-100.0,-100.0,-100.0,-100.0,-100.0,-100.0,-100.0,-100.0,-100.0,-100.0,-100.0,-100.0,-100.0,-100.0,-100.0,-100.0,-100.0,-100.0,-100.0,-100.0
2021.02.06 175054,51.0,24.0,29.5347364122807,-1.2726315525438598,-22.956315491228064,-0.2439009943070176,0.5314659989473685,9.985449100877192,0.001000018524385965,-0.005326680546385965,-0.000769979629157895,-0.05319471230828444,0.024444225437228375,-1.570070835581997,1007.5317875438597,-65.0,-100.0,-100.0,-100.0,-100.0,-100.0,-89.0,-100.0,-88.0,-60.0,-100.0,-100.0,-85.0,-100.0,-100.0,-100.0,-100.0,-76.0,-61.0,-75.0,-83.0,-100.0,-100.0,-69.0,-71.0,-85.0,-100.0,-66.0,-69.0,-100.0,-100.0,-43.0,-57.0,-100.0,-72.0,-66.0,-74.0,-45.0,-50.0,-60.0,-100.0,-73.0,-84.0,-100.0,-100.0,-68.0,-71.0,-85.0,-100.0,-65.0,-69.0,-100.0,-100.0,-44.0,-57.0,-100.0,-72.0,-69.0,-74.0,-46.0,-50.0,-100.0,-85.0,-100.0,-100.0,-100.0,-100.0,-66.0,-100.0,-68.0,-74.0,-100.0,-100.0,-100.0,-100.0,-100.0,-100.0,-100.0,-65.0,-100.0,-69.0,-61.0,-100.0,-74.0,-65.0,-100.0,-100.0,-100.0,-76.0,-100.0,-100.0,-100.0,-100.0,-100.0,-100.0,-100.0,-100.0,-100.0,-100.0,-100.0,-91.0,-62.0,-80.0,-100.0,-100.0,-100.0,-100.0,-75.0,-76.0,-75.0,-100.0,-100.0,-71.0,-100.0,-59.0,-100.0,-71.0,-75.0,-100.0,-100.0,-78.0,-100.0,-76.0,-82.0,-100.0,-83.0,-70.0,-100.0,-100.0,-78.0,-100.0,-88.0,-100.0,-100.0,-100.0,-100.0,-100.0,-100.0,-100.0,-100.0,-100.0,-100.0,-92.0,-100.0,-100.0,-100.0,-100.0,-100.0,-100.0,-100.0,-100.0,-100.0,-100.0,-100.0,-100.0,-100.0,-100.0,-100.0,-100.0,-100.0,-100.0,-100.0,-100.0,-100.0,-100.0,-100.0,-100.0,-100.0,-100.0,-100.0,-100.0,-100.0,-100.0,-100.0
2021.02.06 175104,52.0,24.0,28.09016908474576,-1.0255932083898307,-21.68135561016949,-0.19403771072033896,0.4740055433898304,9.980494016949152,0.004299290167203389,-0.0026780539351186437,-0.00348699485881356,-0.04747379138686895,0.019523011461310667,-1.5684137455487654,1007.5379048305083,-72.0,-87.0,-100.0,-100.0,-100.0,-100.0,-89.0,-100.0,-100.0,-59.0,-100.0,-100.0,-85.0,-100.0,-100.0,-100.0,-100.0,-100.0,-65.0,-71.0,-87.0,-100.0,-100.0,-100.0,-71.0,-100.0,-100.0,-60.0,-70.0,-100.0,-100.0,-47.0,-60.0,-73.0,-74.0,-69.0,-73.0,-48.0,-50.0,-59.0,-100.0,-72.0,-85.0,-100.0,-100.0,-100.0,-71.0,-100.0,-100.0,-56.0,-69.0,-100.0,-100.0,-48.0,-60.0,-72.0,-74.0,-70.0,-74.0,-46.0,-50.0,-100.0,-100.0,-100.0,-100.0,-100.0,-100.0,-59.0,-100.0,-62.0,-100.0,-100.0,-100.0,-100.0,-100.0,-100.0,-100.0,-100.0,-82.0,-100.0,-70.0,-60.0,-100.0,-76.0,-56.0,-100.0,-100.0,-100.0,-100.0,-100.0,-100.0,-100.0,-100.0,-100.0,-100.0,-100.0,-100.0,-100.0,-100.0,-100.0,-92.0,-59.0,-78.0,-100.0,-100.0,-100.0,-100.0,-75.0,-80.0,-75.0,-100.0,-100.0,-67.0,-100.0,-65.0,-100.0,-69.0,-79.0,-100.0,-100.0,-83.0,-100.0,-64.0,-83.0,-82.0,-85.0,-100.0,-100.0,-100.0,-72.0,-100.0,-85.0,-100.0,-100.0,-100.0,-100.0,-100.0,-100.0,-100.0,-82.0,-88.0,-89.0,-87.0,-85.0,-100.0,-100.0,-100.0,-100.0,-100.0,-100.0,-100.0,-100.0,-100.0,-100.0,-100.0,-100.0,-100.0,-100.0,-100.0,-100.0,-100.0,-100.0,-100.0,-100.0,-100.0,-100.0,-100.0,-100.0,-100.0,-100.0,-100.0,-100.0,-100.0,-100.0
2021.02.06 175114,53.0,24.0,29.29911479646018,-0.10247787380530973,-20.931504274336284,-0.16980281677876105,0.465527537699115,9.989020424778758,-0.0010789717583185837,-0.0004541269470796458,-0.005966602018548672,-0.04657233569902916,0.01701075809006369,-1.5390492013070436,1007.533143097345,-74.0,-100.0,-100.0,-100.0,-100.0,-100.0,-91.0,-100.0,-100.0,-49.0,-100.0,-100.0,-100.0,-100.0,-100.0,-100.0,-100.0,-82.0,-55.0,-100.0,-89.0,-100.0,-100.0,-72.0,-69.0,-86.0,-100.0,-61.0,-65.0,-100.0,-100.0,-53.0,-64.0,-72.0,-73.0,-68.0,-75.0,-36.0,-49.0,-56.0,-91.0,-78.0,-90.0,-100.0,-100.0,-72.0,-70.0,-87.0,-100.0,-60.0,-65.0,-100.0,-100.0,-54.0,-64.0,-100.0,-73.0,-70.0,-75.0,-39.0,-49.0,-100.0,-84.0,-100.0,-100.0,-100.0,-100.0,-60.0,-100.0,-61.0,-63.0,-100.0,-100.0,-92.0,-100.0,-100.0,-100.0,-100.0,-81.0,-100.0,-77.0,-62.0,-100.0,-76.0,-61.0,-100.0,-100.0,-100.0,-83.0,-100.0,-100.0,-100.0,-100.0,-100.0,-100.0,-100.0,-100.0,-100.0,-100.0,-100.0,-100.0,-53.0,-82.0,-100.0,-100.0,-100.0,-100.0,-77.0,-76.0,-77.0,-100.0,-100.0,-67.0,-100.0,-68.0,-100.0,-72.0,-100.0,-100.0,-100.0,-77.0,-100.0,-67.0,-86.0,-79.0,-86.0,-100.0,-100.0,-100.0,-70.0,-100.0,-85.0,-100.0,-100.0,-100.0,-100.0,-100.0,-100.0,-100.0,-100.0,-88.0,-87.0,-100.0,-100.0,-92.0,-80.0,-100.0,-100.0,-100.0,-100.0,-100.0,-100.0,-100.0,-100.0,-100.0,-100.0,-100.0,-100.0,-100.0,-100.0,-100.0,-100.0,-100.0,-100.0,-100.0,-100.0,-100.0,-100.0,-100.0,-100.0,-100.0,-100.0,-100.0,-100.0
2021.02.06 175124,54.0,24.0,32.64756712612613,-1.100540517927928,-21.332432225225226,-0.20422516934234233,0.540006035045045,9.998513139639641,-6.066818918918923e-05,3.9172436540540624e-05,-0.0014956898445405411,-0.05397657392261261,0.02046040760202178,-1.5674836087871242,1007.5370621621621,-74.0,-100.0,-100.0,-100.0,-100.0,-100.0,-91.0,-100.0,-100.0,-49.0,-100.0,-100.0,-100.0,-100.0,-100.0,-100.0,-100.0,-82.0,-55.0,-100.0,-89.0,-100.0,-100.0,-72.0,-69.0,-86.0,-100.0,-61.0,-65.0,-100.0,-100.0,-53.0,-64.0,-72.0,-73.0,-68.0,-75.0,-36.0,-49.0,-56.0,-91.0,-78.0,-90.0,-100.0,-100.0,-72.0,-70.0,-87.0,-100.0,-60.0,-65.0,-100.0,-100.0,-54.0,-64.0,-100.0,-73.0,-70.0,-75.0,-39.0,-49.0,-100.0,-84.0,-100.0,-100.0,-100.0,-100.0,-60.0,-100.0,-61.0,-63.0,-100.0,-100.0,-92.0,-100.0,-100.0,-100.0,-100.0,-81.0,-100.0,-77.0,-62.0,-100.0,-76.0,-61.0,-100.0,-100.0,-100.0,-83.0,-100.0,-100.0,-100.0,-100.0,-100.0,-100.0,-100.0,-100.0,-100.0,-100.0,-100.0,-100.0,-53.0,-82.0,-100.0,-100.0,-100.0,-100.0,-77.0,-76.0,-77.0,-100.0,-100.0,-67.0,-100.0,-68.0,-100.0,-72.0,-100.0,-100.0,-100.0,-77.0,-100.0,-67.0,-86.0,-79.0,-86.0,-100.0,-100.0,-100.0,-70.0,-100.0,-85.0,-100.0,-100.0,-100.0,-100.0,-100.0,-100.0,-100.0,-100.0,-88.0,-87.0,-100.0,-100.0,-92.0,-80.0,-100.0,-100.0,-100.0,-100.0,-100.0,-100.0,-100.0,-100.0,-100.0,-100.0,-100.0,-100.0,-100.0,-100.0,-100.0,-100.0,-100.0,-100.0,-100.0,-100.0,-100.0,-100.0,-100.0,-100.0,-100.0,-100.0,-100.0,-100.0
2021.02.06 175134,55.0,24.0,32.50831808849558,-4.386902578761062,-20.18336257522124,-0.25074201936283186,0.5069294256637168,9.993660668141592,-0.0010465364982300879,-0.00479505424984071,-0.0023662813299469023,-0.05068071400829116,0.025092917133897368,-1.6738641124911013,1007.5386762831857,-79.0,-100.0,-100.0,-100.0,-100.0,-100.0,-91.0,-100.0,-100.0,-49.0,-100.0,-100.0,-100.0,-100.0,-100.0,-100.0,-100.0,-88.0,-47.0,-100.0,-89.0,-100.0,-100.0,-69.0,-73.0,-100.0,-100.0,-63.0,-65.0,-88.0,-100.0,-63.0,-73.0,-76.0,-74.0,-72.0,-74.0,-40.0,-46.0,-48.0,-100.0,-100.0,-89.0,-100.0,-100.0,-68.0,-73.0,-88.0,-100.0,-63.0,-65.0,-87.0,-100.0,-64.0,-73.0,-100.0,-74.0,-73.0,-74.0,-40.0,-46.0,-100.0,-100.0,-100.0,-100.0,-100.0,-100.0,-64.0,-100.0,-60.0,-64.0,-100.0,-100.0,-100.0,-100.0,-100.0,-100.0,-74.0,-87.0,-100.0,-83.0,-54.0,-83.0,-70.0,-64.0,-100.0,-100.0,-100.0,-89.0,-100.0,-100.0,-100.0,-100.0,-100.0,-100.0,-100.0,-100.0,-100.0,-100.0,-100.0,-100.0,-59.0,-86.0,-100.0,-100.0,-100.0,-100.0,-73.0,-100.0,-73.0,-100.0,-100.0,-72.0,-100.0,-64.0,-100.0,-71.0,-100.0,-100.0,-100.0,-78.0,-100.0,-64.0,-100.0,-82.0,-100.0,-100.0,-100.0,-85.0,-68.0,-100.0,-83.0,-100.0,-100.0,-100.0,-100.0,-100.0,-100.0,-100.0,-88.0,-83.0,-83.0,-87.0,-82.0,-86.0,-82.0,-84.0,-87.0,-90.0,-100.0,-100.0,-100.0,-100.0,-100.0,-100.0,-100.0,-100.0,-100.0,-100.0,-100.0,-100.0,-100.0,-100.0,-100.0,-100.0,-100.0,-100.0,-100.0,-100.0,-100.0,-100.0,-100.0,-100.0,-100.0
2021.02.06 175143,56.0,24.0,30.545127880341884,-6.120512710256411,-19.964615145299142,-0.21386808495726498,0.551563152051282,9.991697581196583,-0.0020452396019658126,-0.0015102155277264958,-0.00439931063791453,-0.055158450180648695,0.021389050638545896,-1.7339517132848756,1007.5401905982908,-79.0,-100.0,-100.0,-100.0,-100.0,-100.0,-91.0,-100.0,-100.0,-49.0,-100.0,-100.0,-100.0,-100.0,-100.0,-100.0,-100.0,-88.0,-47.0,-100.0,-89.0,-100.0,-100.0,-69.0,-73.0,-100.0,-100.0,-63.0,-65.0,-88.0,-100.0,-63.0,-73.0,-76.0,-74.0,-72.0,-74.0,-40.0,-46.0,-48.0,-100.0,-100.0,-89.0,-100.0,-100.0,-68.0,-73.0,-88.0,-100.0,-63.0,-65.0,-87.0,-100.0,-64.0,-73.0,-100.0,-74.0,-73.0,-74.0,-40.0,-46.0,-100.0,-100.0,-100.0,-100.0,-100.0,-100.0,-64.0,-100.0,-60.0,-64.0,-100.0,-100.0,-100.0,-100.0,-100.0,-100.0,-74.0,-87.0,-100.0,-83.0,-54.0,-83.0,-70.0,-64.0,-100.0,-100.0,-100.0,-89.0,-100.0,-100.0,-100.0,-100.0,-100.0,-100.0,-100.0,-100.0,-100.0,-100.0,-100.0,-100.0,-59.0,-86.0,-100.0,-100.0,-100.0,-100.0,-73.0,-100.0,-73.0,-100.0,-100.0,-72.0,-100.0,-64.0,-100.0,-71.0,-100.0,-100.0,-100.0,-78.0,-100.0,-64.0,-100.0,-82.0,-100.0,-100.0,-100.0,-85.0,-68.0,-100.0,-83.0,-100.0,-100.0,-100.0,-100.0,-100.0,-100.0,-100.0,-88.0,-83.0,-83.0,-87.0,-82.0,-86.0,-82.0,-84.0,-87.0,-90.0,-100.0,-100.0,-100.0,-100.0,-100.0,-100.0,-100.0,-100.0,-100.0,-100.0,-100.0,-100.0,-100.0,-100.0,-100.0,-100.0,-100.0,-100.0,-100.0,-100.0,-100.0,-100.0,-100.0,-100.0,-100.0
2021.02.06 175154,57.0,24.0,29.80499965178571,-5.907857052678572,-21.1944639375,-0.26783811710714284,0.5231918017857143,9.9963325,0.002035446558214286,-0.0010687087463214285,-0.0015258105768392856,-0.052290393355568565,0.0268223421880975,-1.7319445961288042,1007.5315823214287,-87.0,-100.0,-100.0,-100.0,-100.0,-100.0,-90.0,-100.0,-100.0,-59.0,-100.0,-100.0,-89.0,-100.0,-100.0,-100.0,-100.0,-100.0,-51.0,-100.0,-100.0,-100.0,-100.0,-70.0,-72.0,-100.0,-100.0,-64.0,-63.0,-85.0,-100.0,-65.0,-79.0,-71.0,-75.0,-73.0,-75.0,-39.0,-43.0,-50.0,-89.0,-100.0,-100.0,-100.0,-100.0,-70.0,-72.0,-100.0,-100.0,-65.0,-63.0,-85.0,-100.0,-65.0,-78.0,-72.0,-75.0,-75.0,-75.0,-39.0,-43.0,-100.0,-100.0,-100.0,-100.0,-100.0,-100.0,-64.0,-100.0,-53.0,-60.0,-100.0,-100.0,-100.0,-100.0,-100.0,-100.0,-68.0,-87.0,-100.0,-60.0,-56.0,-100.0,-76.0,-68.0,-100.0,-100.0,-100.0,-100.0,-100.0,-100.0,-100.0,-100.0,-100.0,-100.0,-100.0,-100.0,-100.0,-100.0,-100.0,-88.0,-67.0,-100.0,-100.0,-100.0,-100.0,-100.0,-66.0,-100.0,-66.0,-100.0,-100.0,-67.0,-100.0,-68.0,-100.0,-69.0,-85.0,-100.0,-100.0,-73.0,-100.0,-68.0,-100.0,-75.0,-100.0,-100.0,-100.0,-88.0,-65.0,-100.0,-76.0,-100.0,-100.0,-100.0,-100.0,-100.0,-100.0,-90.0,-79.0,-88.0,-89.0,-100.0,-75.0,-100.0,-70.0,-87.0,-100.0,-100.0,-100.0,-100.0,-100.0,-100.0,-100.0,-100.0,-100.0,-100.0,-100.0,-100.0,-100.0,-100.0,-100.0,-100.0,-100.0,-100.0,-100.0,-100.0,-100.0,-100.0,-100.0,-100.0,-100.0,-100.0,-100.0
2021.02.06 175214,59.0,24.0,24.73274308849557,-7.196814074336282,-22.996459973451326,-0.19872480816814161,0.546954072300885,9.98974075221239,-0.00023565327035398182,-0.0003460090616283186,-0.004388082984814159,-0.054680476970640914,0.019882327907891753,-1.8093504114488586,1007.5272210619469,-87.0,-100.0,-100.0,-100.0,-100.0,-100.0,-90.0,-100.0,-100.0,-59.0,-100.0,-100.0,-89.0,-100.0,-100.0,-100.0,-100.0,-100.0,-51.0,-100.0,-100.0,-100.0,-100.0,-70.0,-72.0,-100.0,-100.0,-64.0,-63.0,-85.0,-100.0,-65.0,-79.0,-71.0,-75.0,-73.0,-75.0,-39.0,-43.0,-50.0,-89.0,-100.0,-100.0,-100.0,-100.0,-70.0,-72.0,-100.0,-100.0,-65.0,-63.0,-85.0,-100.0,-65.0,-78.0,-72.0,-75.0,-75.0,-75.0,-39.0,-43.0,-100.0,-100.0,-100.0,-100.0,-100.0,-100.0,-64.0,-100.0,-53.0,-60.0,-100.0,-100.0,-100.0,-100.0,-100.0,-100.0,-68.0,-87.0,-100.0,-60.0,-56.0,-100.0,-76.0,-68.0,-100.0,-100.0,-100.0,-100.0,-100.0,-100.0,-100.0,-100.0,-100.0,-100.0,-100.0,-100.0,-100.0,-100.0,-100.0,-88.0,-67.0,-100.0,-100.0,-100.0,-100.0,-100.0,-66.0,-100.0,-66.0,-100.0,-100.0,-67.0,-100.0,-68.0,-100.0,-69.0,-85.0,-100.0,-100.0,-73.0,-100.0,-68.0,-100.0,-75.0,-100.0,-100.0,-100.0,-88.0,-65.0,-100.0,-76.0,-100.0,-100.0,-100.0,-100.0,-100.0,-100.0,-90.0,-79.0,-88.0,-89.0,-100.0,-75.0,-100.0,-68.0,-87.0,-100.0,-100.0,-100.0,-100.0,-100.0,-100.0,-100.0,-100.0,-100.0,-100.0,-100.0,-100.0,-100.0,-100.0,-100.0,-100.0,-100.0,-100.0,-100.0,-100.0,-100.0,-100.0,-100.0,-100.0,-100.0,-100.0,-100.0
2021.02.06 175224,60.0,24.0,24.175861681034483,-4.556379238793103,-25.810344577586203,-0.17121128771551725,0.495367200862069,9.98548815948276,-0.0019481547774999987,-0.004619362870965517,-0.004205680860913793,-0.049558862337264475,0.01714329910866012,-1.7055517075390652,1007.5329051724137,-87.0,-100.0,-100.0,-100.0,-100.0,-100.0,-90.0,-100.0,-100.0,-59.0,-100.0,-100.0,-89.0,-100.0,-100.0,-100.0,-100.0,-100.0,-51.0,-100.0,-100.0,-100.0,-100.0,-70.0,-72.0,-100.0,-100.0,-64.0,-63.0,-85.0,-100.0,-65.0,-79.0,-71.0,-75.0,-73.0,-75.0,-39.0,-43.0,-50.0,-89.0,-100.0,-100.0,-100.0,-100.0,-70.0,-72.0,-100.0,-100.0,-65.0,-63.0,-85.0,-100.0,-65.0,-78.0,-72.0,-75.0,-75.0,-75.0,-39.0,-43.0,-100.0,-100.0,-100.0,-100.0,-100.0,-100.0,-64.0,-100.0,-53.0,-60.0,-100.0,-100.0,-100.0,-100.0,-100.0,-100.0,-68.0,-87.0,-100.0,-60.0,-56.0,-100.0,-76.0,-68.0,-100.0,-100.0,-100.0,-100.0,-100.0,-100.0,-100.0,-100.0,-100.0,-100.0,-100.0,-100.0,-100.0,-100.0,-100.0,-88.0,-67.0,-100.0,-100.0,-100.0,-100.0,-100.0,-66.0,-100.0,-66.0,-100.0,-100.0,-67.0,-100.0,-68.0,-100.0,-69.0,-85.0,-100.0,-100.0,-73.0,-100.0,-68.0,-100.0,-75.0,-100.0,-100.0,-100.0,-88.0,-65.0,-100.0,-76.0,-100.0,-100.0,-100.0,-100.0,-100.0,-100.0,-90.0,-79.0,-88.0,-89.0,-100.0,-75.0,-100.0,-64.0,-87.0,-100.0,-100.0,-100.0,-100.0,-100.0,-100.0,-100.0,-100.0,-100.0,-100.0,-100.0,-100.0,-100.0,-100.0,-100.0,-100.0,-100.0,-100.0,-100.0,-100.0,-100.0,-100.0,-100.0,-100.0,-100.0,-100.0,-100.0
2021.02.06 175235,61.0,24.0,27.416841736842105,-1.4431578678070174,-26.259999578947372,-0.22268855881578953,0.6147195559649122,9.989229548245612,0.002259258377719298,-0.0035905372063157895,-0.005710486268578948,-0.0614459598927121,0.022316915134229377,-1.5619928774080778,1007.5248521052631,-100.0,-100.0,-100.0,-100.0,-100.0,-100.0,-100.0,-100.0,-100.0,-68.0,-100.0,-100.0,-100.0,-100.0,-100.0,-100.0,-100.0,-100.0,-40.0,-100.0,-92.0,-100.0,-100.0,-66.0,-76.0,-100.0,-100.0,-60.0,-61.0,-100.0,-100.0,-100.0,-81.0,-74.0,-76.0,-100.0,-71.0,-28.0,-42.0,-40.0,-100.0,-100.0,-91.0,-100.0,-100.0,-66.0,-76.0,-100.0,-100.0,-59.0,-61.0,-100.0,-100.0,-74.0,-81.0,-72.0,-76.0,-100.0,-71.0,-28.0,-42.0,-100.0,-64.0,-100.0,-100.0,-100.0,-100.0,-71.0,-100.0,-56.0,-43.0,-100.0,-100.0,-100.0,-100.0,-100.0,-100.0,-60.0,-100.0,-100.0,-88.0,-51.0,-100.0,-70.0,-79.0,-100.0,-100.0,-100.0,-100.0,-100.0,-100.0,-100.0,-100.0,-100.0,-100.0,-100.0,-100.0,-100.0,-100.0,-100.0,-100.0,-77.0,-100.0,-86.0,-100.0,-100.0,-100.0,-52.0,-100.0,-52.0,-100.0,-100.0,-78.0,-100.0,-59.0,-100.0,-68.0,-100.0,-100.0,-100.0,-70.0,-100.0,-60.0,-100.0,-70.0,-100.0,-100.0,-100.0,-100.0,-63.0,-100.0,-70.0,-100.0,-100.0,-100.0,-100.0,-100.0,-100.0,-100.0,-79.0,-81.0,-82.0,-100.0,-68.0,-75.0,-70.0,-100.0,-100.0,-100.0,-89.0,-100.0,-100.0,-100.0,-100.0,-100.0,-100.0,-100.0,-100.0,-100.0,-100.0,-100.0,-100.0,-100.0,-100.0,-100.0,-100.0,-100.0,-100.0,-100.0,-100.0,-100.0,-100.0,-100.0,-100.0
2021.02.06 175245,62.0,24.0,30.233035169642854,-1.8235714056249999,-26.278928205357143,-0.11045730235357144,0.5718468841071429,9.982971535714285,0.004075300216607143,-0.0032940035494999987,-0.002878440694339286,-0.05720256134268956,0.011088000445202547,-1.5801183485559054,1007.5236916964285,-100.0,-100.0,-100.0,-100.0,-100.0,-100.0,-100.0,-100.0,-100.0,-100.0,-100.0,-100.0,-100.0,-100.0,-100.0,-100.0,-100.0,-100.0,-42.0,-100.0,-100.0,-100.0,-100.0,-69.0,-80.0,-100.0,-100.0,-59.0,-60.0,-100.0,-100.0,-100.0,-84.0,-69.0,-77.0,-73.0,-76.0,-31.0,-48.0,-42.0,-100.0,-100.0,-100.0,-100.0,-100.0,-69.0,-79.0,-100.0,-100.0,-59.0,-61.0,-100.0,-100.0,-100.0,-83.0,-68.0,-75.0,-71.0,-77.0,-31.0,-48.0,-100.0,-65.0,-100.0,-100.0,-100.0,-100.0,-67.0,-100.0,-100.0,-52.0,-100.0,-100.0,-100.0,-100.0,-100.0,-100.0,-58.0,-100.0,-100.0,-100.0,-59.0,-70.0,-62.0,-84.0,-100.0,-100.0,-100.0,-100.0,-100.0,-100.0,-100.0,-100.0,-100.0,-100.0,-100.0,-100.0,-100.0,-100.0,-100.0,-100.0,-77.0,-100.0,-83.0,-100.0,-100.0,-100.0,-57.0,-100.0,-57.0,-100.0,-100.0,-75.0,-100.0,-65.0,-100.0,-66.0,-100.0,-100.0,-100.0,-71.0,-100.0,-67.0,-100.0,-68.0,-100.0,-100.0,-100.0,-87.0,-72.0,-100.0,-72.0,-100.0,-100.0,-100.0,-100.0,-100.0,-100.0,-100.0,-81.0,-81.0,-81.0,-100.0,-100.0,-100.0,-65.0,-81.0,-86.0,-100.0,-83.0,-100.0,-100.0,-100.0,-100.0,-100.0,-100.0,-100.0,-100.0,-100.0,-100.0,-100.0,-100.0,-100.0,-100.0,-100.0,-100.0,-100.0,-100.0,-100.0,-100.0,-100.0,-100.0,-100.0,-100.0
2021.02.06 175255,63.0,24.0,32.24654836283186,-2.0246017345132743,-26.3384067079646,-0.2240024194283186,0.6000306966371681,9.996182141592922,-0.0010519425464601774,-0.0011028333714690264,-0.003479893931858407,-0.05992431737548477,0.022408934040159863,-1.5829286279931534,1007.5245034513274,-100.0,-100.0,-100.0,-100.0,-100.0,-100.0,-100.0,-100.0,-100.0,-69.0,-100.0,-100.0,-100.0,-100.0,-100.0,-100.0,-100.0,-100.0,-46.0,-100.0,-92.0,-100.0,-100.0,-67.0,-78.0,-100.0,-100.0,-52.0,-64.0,-84.0,-100.0,-74.0,-81.0,-100.0,-76.0,-72.0,-73.0,-38.0,-50.0,-45.0,-100.0,-100.0,-91.0,-100.0,-100.0,-67.0,-78.0,-100.0,-100.0,-52.0,-64.0,-100.0,-100.0,-74.0,-82.0,-100.0,-77.0,-72.0,-74.0,-39.0,-50.0,-100.0,-55.0,-100.0,-100.0,-100.0,-100.0,-100.0,-100.0,-63.0,-59.0,-100.0,-100.0,-100.0,-100.0,-100.0,-100.0,-57.0,-100.0,-100.0,-100.0,-61.0,-84.0,-62.0,-76.0,-100.0,-100.0,-100.0,-100.0,-100.0,-100.0,-100.0,-100.0,-100.0,-100.0,-100.0,-100.0,-100.0,-100.0,-100.0,-76.0,-82.0,-100.0,-79.0,-100.0,-100.0,-100.0,-54.0,-100.0,-54.0,-100.0,-100.0,-79.0,-100.0,-67.0,-100.0,-69.0,-100.0,-100.0,-100.0,-67.0,-100.0,-68.0,-100.0,-69.0,-100.0,-100.0,-100.0,-100.0,-72.0,-87.0,-76.0,-100.0,-100.0,-100.0,-100.0,-100.0,-100.0,-100.0,-81.0,-80.0,-80.0,-100.0,-78.0,-78.0,-70.0,-71.0,-100.0,-100.0,-83.0,-91.0,-100.0,-100.0,-100.0,-100.0,-100.0,-100.0,-100.0,-100.0,-100.0,-100.0,-100.0,-100.0,-100.0,-100.0,-100.0,-100.0,-100.0,-100.0,-100.0,-100.0,-100.0,-100.0,-100.0
2021.02.06 175304,64.0,24.0,35.94159265486726,0.17522123424778763,-25.945486424778757,-0.2197223854955752,0.5029036520353982,9.99433867699115,-0.0007384009099115035,-0.004816677907469025,-0.005782801863823008,-0.050274960136255285,0.021983312109106104,-1.5272232272983652,1007.5205102654867,-100.0,-100.0,-100.0,-100.0,-100.0,-100.0,-100.0,-100.0,-100.0,-73.0,-100.0,-100.0,-100.0,-100.0,-100.0,-100.0,-100.0,-100.0,-44.0,-100.0,-100.0,-100.0,-100.0,-65.0,-77.0,-100.0,-100.0,-56.0,-60.0,-85.0,-100.0,-100.0,-83.0,-69.0,-79.0,-71.0,-79.0,-44.0,-50.0,-43.0,-100.0,-100.0,-100.0,-100.0,-100.0,-65.0,-77.0,-100.0,-100.0,-56.0,-60.0,-85.0,-100.0,-100.0,-82.0,-67.0,-79.0,-71.0,-79.0,-44.0,-50.0,-100.0,-62.0,-100.0,-100.0,-100.0,-100.0,-78.0,-100.0,-58.0,-58.0,-100.0,-100.0,-100.0,-100.0,-100.0,-100.0,-59.0,-100.0,-100.0,-100.0,-65.0,-100.0,-58.0,-83.0,-100.0,-100.0,-100.0,-100.0,-100.0,-100.0,-100.0,-100.0,-100.0,-100.0,-100.0,-100.0,-100.0,-100.0,-100.0,-76.0,-76.0,-100.0,-100.0,-100.0,-100.0,-100.0,-59.0,-100.0,-59.0,-100.0,-100.0,-82.0,-100.0,-59.0,-100.0,-72.0,-100.0,-100.0,-100.0,-61.0,-100.0,-59.0,-100.0,-70.0,-100.0,-100.0,-100.0,-100.0,-74.0,-100.0,-80.0,-100.0,-100.0,-100.0,-100.0,-100.0,-100.0,-100.0,-80.0,-88.0,-88.0,-100.0,-73.0,-72.0,-74.0,-75.0,-100.0,-100.0,-81.0,-100.0,-88.0,-89.0,-100.0,-100.0,-100.0,-100.0,-100.0,-100.0,-100.0,-100.0,-100.0,-100.0,-100.0,-100.0,-100.0,-100.0,-100.0,-100.0,-100.0,-100.0,-100.0,-100.0,-100.0
2021.02.06 175314,65.0,24.0,41.97238857522125,3.2718583513274333,-27.125840415929204,-0.15278863363362832,0.5576541473451327,9.989444137168142,0.0015915366350442474,-0.0005946801688141594,-7.418491352212385e-05,-0.05576568007864779,0.015291236587223117,-1.454942078716987,1007.5210864601771,-87.0,-100.0,-100.0,-100.0,-100.0,-100.0,-100.0,-100.0,-100.0,-65.0,-100.0,-100.0,-100.0,-100.0,-90.0,-100.0,-100.0,-100.0,-45.0,-100.0,-100.0,-100.0,-100.0,-100.0,-80.0,-100.0,-100.0,-56.0,-57.0,-89.0,-100.0,-100.0,-83.0,-71.0,-74.0,-72.0,-77.0,-45.0,-51.0,-44.0,-100.0,-100.0,-100.0,-100.0,-100.0,-100.0,-80.0,-100.0,-100.0,-55.0,-57.0,-89.0,-100.0,-100.0,-83.0,-100.0,-74.0,-71.0,-77.0,-45.0,-51.0,-100.0,-100.0,-100.0,-100.0,-100.0,-100.0,-77.0,-100.0,-65.0,-56.0,-100.0,-100.0,-100.0,-100.0,-100.0,-100.0,-59.0,-100.0,-100.0,-100.0,-62.0,-100.0,-65.0,-83.0,-100.0,-100.0,-100.0,-100.0,-100.0,-100.0,-100.0,-100.0,-100.0,-100.0,-100.0,-100.0,-100.0,-100.0,-100.0,-100.0,-84.0,-100.0,-100.0,-100.0,-100.0,-100.0,-63.0,-100.0,-64.0,-100.0,-100.0,-81.0,-100.0,-62.0,-100.0,-100.0,-100.0,-100.0,-100.0,-64.0,-100.0,-63.0,-100.0,-73.0,-100.0,-100.0,-100.0,-100.0,-67.0,-100.0,-82.0,-100.0,-100.0,-100.0,-100.0,-100.0,-100.0,-100.0,-79.0,-100.0,-88.0,-100.0,-74.0,-100.0,-77.0,-78.0,-100.0,-85.0,-85.0,-90.0,-89.0,-89.0,-89.0,-82.0,-100.0,-100.0,-100.0,-100.0,-100.0,-100.0,-100.0,-100.0,-100.0,-100.0,-100.0,-100.0,-100.0,-100.0,-100.0,-100.0,-100.0,-100.0,-100.0
2021.02.06 175324,66.0,24.0,41.864070415929206,1.8987610310619467,-30.001061513274337,-0.16808656539469027,0.5250665897345133,10.003237769911504,-0.002084466806548672,-0.0018596575503362826,-0.0028528109763362834,-0.052448602591072514,0.01681560162759785,-1.485725263578702,1007.5162825663718,-86.0,-100.0,-100.0,-100.0,-100.0,-100.0,-89.0,-100.0,-100.0,-75.0,-100.0,-100.0,-100.0,-100.0,-100.0,-100.0,-100.0,-100.0,-50.0,-100.0,-100.0,-100.0,-100.0,-100.0,-78.0,-100.0,-100.0,-58.0,-63.0,-83.0,-100.0,-100.0,-82.0,-72.0,-77.0,-76.0,-72.0,-45.0,-55.0,-50.0,-100.0,-100.0,-100.0,-100.0,-100.0,-100.0,-78.0,-100.0,-100.0,-49.0,-63.0,-83.0,-100.0,-100.0,-82.0,-67.0,-76.0,-77.0,-72.0,-45.0,-55.0,-100.0,-63.0,-100.0,-100.0,-100.0,-100.0,-83.0,-100.0,-71.0,-63.0,-100.0,-100.0,-100.0,-100.0,-100.0,-100.0,-64.0,-100.0,-100.0,-89.0,-58.0,-100.0,-53.0,-87.0,-100.0,-100.0,-100.0,-100.0,-100.0,-100.0,-100.0,-100.0,-100.0,-100.0,-100.0,-100.0,-100.0,-100.0,-100.0,-67.0,-84.0,-100.0,-100.0,-100.0,-100.0,-100.0,-69.0,-100.0,-69.0,-100.0,-100.0,-84.0,-100.0,-61.0,-100.0,-75.0,-100.0,-100.0,-100.0,-70.0,-100.0,-66.0,-100.0,-74.0,-100.0,-100.0,-100.0,-100.0,-100.0,-100.0,-81.0,-100.0,-100.0,-100.0,-100.0,-100.0,-100.0,-100.0,-100.0,-86.0,-86.0,-100.0,-74.0,-74.0,-100.0,-74.0,-100.0,-80.0,-100.0,-89.0,-88.0,-88.0,-87.0,-81.0,-100.0,-100.0,-100.0,-100.0,-100.0,-100.0,-100.0,-100.0,-100.0,-100.0,-100.0,-100.0,-100.0,-100.0,-100.0,-100.0,-100.0,-100.0,-100.0
2021.02.06 175335,67.0,24.0,44.794434356521734,-3.4210434173913042,-32.38486913913043,-0.19666364977391304,0.561571954347826,9.994161139130433,0.00317033796652174,-0.0035543326689739135,-0.0041945991156695644,-0.05613297356859492,0.019686197763835244,-1.605442476272583,1007.5147159130436,-100.0,-100.0,-100.0,-100.0,-100.0,-100.0,-89.0,-100.0,-100.0,-68.0,-100.0,-100.0,-100.0,-100.0,-100.0,-100.0,-100.0,-100.0,-51.0,-100.0,-100.0,-100.0,-100.0,-70.0,-75.0,-100.0,-100.0,-51.0,-59.0,-85.0,-100.0,-78.0,-79.0,-72.0,-77.0,-70.0,-77.0,-45.0,-54.0,-51.0,-100.0,-100.0,-100.0,-100.0,-100.0,-100.0,-75.0,-100.0,-100.0,-51.0,-59.0,-86.0,-100.0,-77.0,-79.0,-73.0,-77.0,-70.0,-76.0,-45.0,-54.0,-100.0,-61.0,-100.0,-100.0,-100.0,-100.0,-100.0,-100.0,-100.0,-70.0,-100.0,-100.0,-100.0,-100.0,-100.0,-100.0,-64.0,-100.0,-100.0,-100.0,-63.0,-79.0,-54.0,-87.0,-100.0,-100.0,-100.0,-100.0,-100.0,-100.0,-100.0,-100.0,-100.0,-100.0,-100.0,-100.0,-100.0,-100.0,-100.0,-77.0,-84.0,-100.0,-81.0,-100.0,-100.0,-100.0,-68.0,-100.0,-68.0,-100.0,-100.0,-85.0,-100.0,-64.0,-100.0,-100.0,-100.0,-100.0,-100.0,-68.0,-100.0,-64.0,-100.0,-77.0,-100.0,-100.0,-100.0,-77.0,-100.0,-100.0,-88.0,-100.0,-100.0,-100.0,-100.0,-100.0,-100.0,-100.0,-91.0,-86.0,-88.0,-73.0,-78.0,-73.0,-71.0,-79.0,-76.0,-100.0,-92.0,-90.0,-86.0,-87.0,-88.0,-82.0,-87.0,-88.0,-100.0,-100.0,-100.0,-100.0,-100.0,-100.0,-100.0,-100.0,-100.0,-100.0,-100.0,-100.0,-100.0,-100.0,-100.0,-100.0,-100.0
2021.02.06 175345,68.0,24.0,45.67613362184874,-6.479495645378151,-35.446386294117644,-0.20349323889915963,0.4961983647899159,9.99468887815126,-0.001587715737310924,-0.0013314705617142853,-0.002749145176369748,-0.04958855332571914,0.020340530944307204,-1.6737180226991157,1007.5090509243695,-100.0,-100.0,-100.0,-100.0,-100.0,-100.0,-89.0,-100.0,-100.0,-79.0,-100.0,-100.0,-100.0,-100.0,-100.0,-100.0,-100.0,-100.0,-54.0,-100.0,-100.0,-100.0,-100.0,-70.0,-78.0,-100.0,-100.0,-50.0,-56.0,-100.0,-100.0,-100.0,-82.0,-71.0,-80.0,-70.0,-74.0,-49.0,-58.0,-54.0,-100.0,-100.0,-100.0,-100.0,-100.0,-68.0,-78.0,-100.0,-100.0,-51.0,-56.0,-100.0,-100.0,-100.0,-82.0,-72.0,-80.0,-70.0,-73.0,-49.0,-58.0,-100.0,-59.0,-100.0,-100.0,-100.0,-100.0,-100.0,-100.0,-100.0,-66.0,-100.0,-100.0,-100.0,-100.0,-100.0,-100.0,-69.0,-100.0,-100.0,-100.0,-65.0,-74.0,-53.0,-86.0,-100.0,-100.0,-100.0,-100.0,-100.0,-100.0,-100.0,-100.0,-100.0,-100.0,-100.0,-100.0,-100.0,-100.0,-100.0,-100.0,-88.0,-100.0,-65.0,-100.0,-100.0,-100.0,-74.0,-100.0,-75.0,-100.0,-100.0,-87.0,-100.0,-76.0,-100.0,-100.0,-100.0,-100.0,-100.0,-67.0,-100.0,-77.0,-100.0,-79.0,-100.0,-100.0,-100.0,-100.0,-76.0,-100.0,-100.0,-100.0,-100.0,-100.0,-100.0,-100.0,-100.0,-100.0,-89.0,-100.0,-100.0,-100.0,-79.0,-68.0,-64.0,-83.0,-77.0,-68.0,-100.0,-89.0,-85.0,-87.0,-86.0,-68.0,-100.0,-100.0,-100.0,-100.0,-100.0,-100.0,-100.0,-100.0,-100.0,-100.0,-100.0,-100.0,-100.0,-100.0,-100.0,-100.0,-100.0,-100.0,-100.0
