Timestamp,True_X,True_Y,Mean_Mag_x,Mean_Mag_y,Mean_Mag_z,Mean_Acc_x,Mean_Acc_y,Mean_Acc_z,Mean_Gyro_x,Mean_Gyro_y,Mean_Gyro_z,Mean_Orn_x,Mean_Orn_y,Mean_Orn_z,Mean_Pressure,00:1a:ac:a0:de:f9,00:1a:ac:a0:de:g1,00:1a:ac:a0:de:j5,00:1a:ac:a0:de:j7,00:1a:ac:a0:de:j8,00:1a:ac:a0:de:l9,00:1a:ac:a0:de:n6,00:1a:ac:a0:de:r7,00:1a:ac:a0:de:r9,00:1a:ac:a0:de:s6,00:1a:ac:a0:de:s7,00:1a:ac:a0:de:w4,00:1a:ac:a0:de:w6,00:1a:ac:a0:de:x3,00:1a:ac:a0:de:x4,00:1b:ad:a1:df:a8,70:5d:cc:1b:31:60,70:5d:cc:ea:72:5c,70:5d:cc:ea:72:5e,72:5d:cc:4b:31:60,00:1a:ac:a0:de:b5,00:1a:ac:a0:de:b7,00:1a:ac:a0:de:d3,00:1a:ac:a0:de:e8,00:1a:ac:a0:de:e9,00:1a:ac:a0:de:f6,00:1a:ac:a0:de:h4,00:1a:ac:a0:de:j9,00:1a:ac:a0:de:k7,00:1a:ac:a0:de:k8,00:1a:ac:a0:de:p1,00:1a:ac:a0:de:p3,00:1a:ac:a0:de:p6,00:1a:ac:a0:de:p7,00:1a:ac:a0:de:r5,00:1a:ac:a0:de:r6,00:1a:ac:a0:de:s2,00:1a:ac:a0:de:s3,00:1a:ac:a0:de:s4,00:1a:ac:a0:de:s5,00:1a:ac:a0:de:t9,00:1a:ac:a0:de:u3,00:1a:ac:a0:de:u4,00:1a:ac:a0:de:w2,00:1a:ac:a0:de:w3,00:1a:ac:a0:de:w8,00:1a:ac:a0:de:w9,00:1a:ac:a0:de:x2,86:25:19:b5:ef:50,00:1a:ac:a0:de:b3,00:1a:ac:a0:de:b6,00:1a:ac:a0:de:b8,00:1a:ac:a0:de:g9,00:1a:ac:a0:de:k9,00:1a:ac:a0:de:n8,00:1a:ac:a0:de:p4,00:1a:ac:a0:de:p5,00:1a:ac:a0:de:t5,00:1a:ac:a0:de:u1,00:1a:ac:a0:de:u2,00:1a:ac:a0:de:x1,70:5d:cc:e8:73:1c,00:1a:ac:a0:de:m3,00:1a:ac:a0:de:p8,00:1a:ac:a0:de:r1,00:1a:ac:a0:de:r2,00:1a:ac:a0:de:s1,00:1a:ac:a0:de:t3,00:1a:ac:a0:de:t7,00:1a:ac:a0:de:u5,00:1a:ac:a0:de:v8,00:1a:ac:a0:de:w7,00:1a:ac:a0:de:h3,00:1a:ac:a0:de:m2,00:1a:ac:a0:de:n4,00:1a:ac:a0:de:p2,00:1a:ac:a0:de:t8,00:1a:ac:a0:de:v7,00:1a:ac:a0:de:x7,00:1a:ac:a0:de:n9,00:1a:ac:a0:de:t6,00:1a:ab:a0:de:a4,00:1a:ac:a0:de:f5,00:1a:ac:a0:de:f8,00:1a:ac:a0:de:h9,70:5d:cc:e8:73:1e,00:1a:ac:a0:de:f3,00:1a:ac:a0:de:d5,00:1a:ac:a0:de:k4,00:1a:ac:a0:de:r3,ea:d8:d1:b4:cf:21,00:1a:ac:a0:de:f2,00:1a:ac:a0:de:i8,00:1a:ac:a0:de:l2,32:24:a9:c6:2d:75,00:1a:ac:a0:de:h6,00:1a:ac:a0:de:j1,00:1a:ac:a0:de:l1,00:1a:ac:a0:de:l7,00:1a:ac:a0:de:n5,00:1a:ac:a0:de:t2,88:36:6c:51:f3:22,00:1a:ac:a0:de:b2,70:5d:cc:b1:75:50,00:1a:ac:a0:de:i6,00:1a:ac:a0:de:t1,00:1a:ac:a0:de:v9,00:1a:ac:a0:de:b1,00:1a:ac:a0:de:b4,00:1a:ac:a0:de:n7,00:1a:ac:a0:de:r4,00:1a:ac:a0:de:t4,00:1a:ac:a0:de:w1,00:1a:ab:a0:de:a7,00:1a:ab:a0:de:a3,00:1a:ac:a0:de:q2,00:1a:ac:a0:de:u8,28:b3:71:0f:d8:ed,00:1a:ac:a0:de:c2,00:1a:ac:a0:de:l8,00:1a:ac:a0:de:r8,00:1a:ac:a0:de:w5,00:1a:ac:a0:de:k3,00:1a:ac:a0:de:h5,00:1a:ac:a0:de:i7,00:1a:ac:a0:de:m4,00:1a:ac:a0:de:m5,00:1a:ac:a0:de:q6,00:1a:ac:a0:de:v3,00:1a:ac:a0:de:q4,00:1a:ac:a0:de:v1,00:1a:ac:a0:de:q5,00:1a:ac:a0:de:v2,00:1a:ac:a0:de:p9,00:1a:ac:a0:de:q3,00:1a:ac:a0:de:u6,00:1a:ac:a0:de:u9,00:1a:ac:a0:de:s9,00:1a:ac:a0:de:v5,00:1a:ac:a0:de:x5,00:1a:ac:a0:de:x6,00:1a:ac:a0:de:v4,00:1a:ac:a0:de:q8
2021.05.22 145616,1.0,27.0,31.775525828947366,-45.24394670394737,-11.887894480263158,-0.2095871565618421,1.1581793361842105,9.616169351973683,0.00584742731381579,-0.0056103149967105265,0.0006229217453947367,-0.1199204612425283,0.021756655359862785,-2.5138384260629354,1002.4236670394737,-84.0,-68.0,-45.0,-56.0,-63.0,-63.0,-56.0,-77.0,-75.0,-39.0,-64.0,-76.0,-77.0,-39.0,-63.0,-46.0,-67.0,-41.0,-57.0,-59.0,-100.0,-100.0,-100.0,-100.0,-100.0,-100.0,-100.0,-100.0,-100.0,-100.0,-100.0,-100.0,-100.0,-100.0,-100.0,-100.0,-100.0,-100.0,-100.0,-100.0,-100.0,-100.0,-100.0,-100.0,-100.0,-100.0,-100.0,-100.0,-100.0,-100.0,-100.0,-100.0,-100.0,-100.0,-100.0,-100.0,-100.0,-100.0,-100.0,-100.0,-100.0,-100.0,-100.0,-100.0,-100.0,-100.0,-100.0,-100.0,-100.0,-100.0,-100.0,-100.0,-100.0,-100.0,-100.0,-100.0,-100.0,-100.0,-100.0,-100.0,-100.0,-100.0,-100.0,-100.0,-100.0,-100.0,-100.0,-100.0,-100.0,-100.0,-100.0,-100.0,-100.0,-100.0,-100.0,-100.0,-100.0,-100.0,-100.0,-100.0,-100.0,-100.0,-100.0,-100.0,-100.0,-100.0,-100.0,-100.0,-100.0,-100.0,-100.0,-100.0,-100.0,-100.0,-100.0,-100.0,-100.0,-100.0,-100.0,-100.0,-100.0,-100.0,-100.0,-100.0,-100.0,-100.0,-100.0,-100.0,-100.0,-100.0,-100.0,-100.0,-100.0,-100.0,-100.0,-100.0,-100.0,-100.0,-100.0,-100.0,-100.0,-100.0,-100.0
2021.05.22 145628,1.0,26.0,15.511907234104045,-27.238959092485548,-25.50728285549133,-0.3685133110404625,1.053296522716763,9.617923413294797,0.007379817180635839,-0.008894621556936417,0.0026765079378612716,-0.10909818319571496,0.0380802028247214,-2.601909075169205,1002.4146005202313,-100.0,-100.0,-100.0,-100.0,-100.0,-100.0,-100.0,-100.0,-83.0,-100.0,-100.0,-100.0,-84.0,-100.0,-100.0,-100.0,-100.0,-100.0,-100.0,-100.0,-54.0,-49.0,-65.0,-59.0,-67.0,-86.0,-66.0,-90.0,-59.0,-77.0,-87.0,-65.0,-72.0,-75.0,-46.0,-61.0,-39.0,-50.0,-66.0,-79.0,-61.0,-73.0,-74.0,-46.0,-62.0,-39.0,-49.0,-79.0,-70.0,-100.0,-100.0,-100.0,-100.0,-100.0,-100.0,-100.0,-100.0,-100.0,-100.0,-100.0,-100.0,-100.0,-100.0,-100.0,-100.0,-100.0,-100.0,-100.0,-100.0,-100.0,-100.0,-100.0,-100.0,-100.0,-100.0,-100.0,-100.0,-100.0,-100.0,-100.0,-100.0,-100.0,-100.0,-100.0,-100.0,-100.0,-100.0,-100.0,-100.0,-100.0,-100.0,-100.0,-100.0,-100.0,-100.0,-100.0,-100.0,-100.0,-100.0,-100.0,-100.0,-100.0,-100.0,-100.0,-100.0,-100.0,-100.0,-100.0,-100.0,-100.0,-100.0,-100.0,-100.0,-100.0,-100.0,-100.0,-100.0,-100.0,-100.0,-100.0,-100.0,-100.0,-100.0,-100.0,-100.0,-100.0,-100.0,-100.0,-100.0,-100.0,-100.0,-100.0,-100.0,-100.0,-100.0,-100.0,-100.0,-100.0,-100.0,-100.0,-100.0,-100.0,-100.0
2021.05.22 145643,1.0,25.0,4.32315783625731,-42.145262643274854,-32.30140310526316,-0.1771009197152047,1.1146759239766082,9.626076967251462,0.0008502101374269005,-0.002811409103508772,-0.003440135879239767,-0.11538781212610107,0.01822171389813195,-3.044014685335215,1002.4012494736842,-100.0,-100.0,-100.0,-100.0,-100.0,-100.0,-89.0,-100.0,-84.0,-73.0,-82.0,-100.0,-84.0,-72.0,-85.0,-100.0,-100.0,-100.0,-100.0,-100.0,-65.0,-60.0,-63.0,-59.0,-68.0,-100.0,-58.0,-100.0,-57.0,-85.0,-79.0,-66.0,-64.0,-65.0,-44.0,-54.0,-31.0,-41.0,-64.0,-75.0,-68.0,-64.0,-65.0,-49.0,-54.0,-31.0,-43.0,-78.0,-78.0,-88.0,-77.0,-83.0,-87.0,-90.0,-73.0,-86.0,-56.0,-75.0,-87.0,-56.0,-64.0,-81.0,-100.0,-100.0,-100.0,-100.0,-100.0,-100.0,-100.0,-100.0,-100.0,-100.0,-100.0,-100.0,-100.0,-100.0,-100.0,-100.0,-100.0,-100.0,-100.0,-100.0,-100.0,-100.0,-100.0,-100.0,-100.0,-100.0,-100.0,-100.0,-100.0,-100.0,-100.0,-100.0,-100.0,-100.0,-100.0,-100.0,-100.0,-100.0,-100.0,-100.0,-100.0,-100.0,-100.0,-100.0,-100.0,-100.0,-100.0,-100.0,-100.0,-100.0,-100.0,-100.0,-100.0,-100.0,-100.0,-100.0,-100.0,-100.0,-100.0,-100.0,-100.0,-100.0,-100.0,-100.0,-100.0,-100.0,-100.0,-100.0,-100.0,-100.0,-100.0,-100.0,-100.0,-100.0,-100.0,-100.0,-100.0,-100.0,-100.0,-100.0,-100.0
2021.05.22 145655,1.0,24.0,37.56724105747126,-3.0793103005747127,-32.71034417816092,-0.23864962327011496,1.103671957586207,9.625543922413794,0.007010907464655174,-0.004160202887931034,0.0032860334511494254,-0.11426196157418445,0.02467989718043723,-1.5493766823034176,1002.3919931609196,-100.0,-100.0,-100.0,-100.0,-100.0,-100.0,-76.0,-100.0,-69.0,-64.0,-67.0,-100.0,-70.0,-63.0,-67.0,-100.0,-100.0,-100.0,-100.0,-100.0,-68.0,-66.0,-68.0,-48.0,-68.0,-83.0,-62.0,-100.0,-58.0,-83.0,-71.0,-64.0,-57.0,-67.0,-40.0,-61.0,-31.0,-44.0,-54.0,-68.0,-64.0,-56.0,-66.0,-40.0,-61.0,-31.0,-43.0,-69.0,-75.0,-100.0,-100.0,-78.0,-86.0,-100.0,-82.0,-79.0,-49.0,-81.0,-82.0,-100.0,-48.0,-100.0,-90.0,-79.0,-63.0,-78.0,-88.0,-76.0,-71.0,-78.0,-78.0,-87.0,-100.0,-100.0,-100.0,-100.0,-100.0,-100.0,-100.0,-100.0,-100.0,-100.0,-100.0,-100.0,-100.0,-100.0,-100.0,-100.0,-100.0,-100.0,-100.0,-100.0,-100.0,-100.0,-100.0,-100.0,-100.0,-100.0,-100.0,-100.0,-100.0,-100.0,-100.0,-100.0,-100.0,-100.0,-100.0,-100.0,-100.0,-100.0,-100.0,-100.0,-100.0,-100.0,-100.0,-100.0,-100.0,-100.0,-100.0,-100.0,-100.0,-100.0,-100.0,-100.0,-100.0,-100.0,-100.0,-100.0,-100.0,-100.0,-100.0,-100.0,-100.0,-100.0,-100.0,-100.0,-100.0,-100.0,-100.0,-100.0,-100.0,-100.0,-100.0
2021.05.22 145822,9.0,24.0,29.48749963690476,-2.0289285279761904,-30.434999523809523,-0.3511353319583333,0.8760925554761905,9.65032868452381,0.004097887685119049,-0.007334018990476191,0.0025489079175595236,-0.09056507966791585,0.036401462547170575,-1.541529085664522,1002.3537416666666,-100.0,-100.0,-100.0,-100.0,-100.0,-100.0,-77.0,-82.0,-65.0,-56.0,-72.0,-81.0,-67.0,-56.0,-71.0,-100.0,-100.0,-100.0,-100.0,-100.0,-63.0,-52.0,-100.0,-57.0,-76.0,-71.0,-58.0,-100.0,-60.0,-78.0,-100.0,-66.0,-48.0,-54.0,-56.0,-64.0,-42.0,-41.0,-55.0,-65.0,-69.0,-49.0,-54.0,-56.0,-66.0,-42.0,-40.0,-66.0,-60.0,-100.0,-70.0,-100.0,-83.0,-100.0,-100.0,-78.0,-47.0,-100.0,-79.0,-47.0,-52.0,-82.0,-80.0,-73.0,-60.0,-73.0,-84.0,-79.0,-100.0,-73.0,-73.0,-87.0,-66.0,-61.0,-68.0,-87.0,-87.0,-62.0,-67.0,-100.0,-100.0,-100.0,-100.0,-100.0,-100.0,-100.0,-100.0,-100.0,-100.0,-100.0,-100.0,-100.0,-100.0,-100.0,-100.0,-100.0,-100.0,-100.0,-100.0,-100.0,-100.0,-100.0,-100.0,-100.0,-100.0,-100.0,-100.0,-100.0,-100.0,-100.0,-100.0,-100.0,-100.0,-100.0,-100.0,-100.0,-100.0,-100.0,-100.0,-100.0,-100.0,-100.0,-100.0,-100.0,-100.0,-100.0,-100.0,-100.0,-100.0,-100.0,-100.0,-100.0,-100.0,-100.0,-100.0,-100.0,-100.0,-100.0,-100.0,-100.0,-100.0,-100.0,-100.0
2021.05.22 145834,10.0,24.0,28.837930764367815,-1.2899999723563218,-32.17689611494253,-0.4176368393816092,0.9062879021264368,9.639455099425287,0.0028823009637931035,-0.0024785681735632185,-0.003191244468390803,-0.0937764740966517,0.04326635967968857,-1.5035336387568508,1002.3442387356321,-100.0,-100.0,-100.0,-100.0,-100.0,-100.0,-75.0,-100.0,-70.0,-62.0,-74.0,-100.0,-69.0,-64.0,-73.0,-100.0,-100.0,-100.0,-100.0,-100.0,-57.0,-46.0,-100.0,-45.0,-78.0,-73.0,-63.0,-80.0,-61.0,-74.0,-64.0,-73.0,-54.0,-53.0,-53.0,-64.0,-42.0,-47.0,-48.0,-63.0,-74.0,-53.0,-53.0,-53.0,-64.0,-42.0,-45.0,-63.0,-65.0,-100.0,-66.0,-66.0,-81.0,-83.0,-100.0,-83.0,-38.0,-100.0,-83.0,-38.0,-48.0,-86.0,-100.0,-75.0,-58.0,-68.0,-85.0,-74.0,-63.0,-76.0,-70.0,-85.0,-100.0,-100.0,-100.0,-87.0,-100.0,-61.0,-100.0,-88.0,-90.0,-100.0,-100.0,-100.0,-100.0,-100.0,-100.0,-100.0,-100.0,-100.0,-100.0,-100.0,-100.0,-100.0,-100.0,-100.0,-100.0,-100.0,-100.0,-100.0,-100.0,-100.0,-100.0,-100.0,-100.0,-100.0,-100.0,-100.0,-100.0,-100.0,-100.0,-100.0,-100.0,-100.0,-100.0,-100.0,-100.0,-100.0,-100.0,-100.0,-100.0,-100.0,-100.0,-100.0,-100.0,-100.0,-100.0,-100.0,-100.0,-100.0,-100.0,-100.0,-100.0,-100.0,-100.0,-100.0,-100.0,-100.0,-100.0,-100.0,-100.0,-100.0,-100.0
2021.05.22 145846,11.0,24.0,29.42727233939394,0.2036363536969697,-32.86690868484848,-0.4584678624242424,0.7272859270909091,9.65011289090909,-0.00053311870909091,-0.009399920370606062,0.003402334193636363,-0.07528917595292578,0.047432906282218974,-1.4709263852148344,1002.3151241818182,-100.0,-100.0,-100.0,-100.0,-100.0,-100.0,-72.0,-100.0,-69.0,-66.0,-73.0,-100.0,-69.0,-65.0,-74.0,-100.0,-100.0,-100.0,-100.0,-100.0,-60.0,-46.0,-100.0,-100.0,-88.0,-64.0,-54.0,-88.0,-59.0,-80.0,-63.0,-57.0,-52.0,-56.0,-60.0,-75.0,-45.0,-51.0,-48.0,-66.0,-57.0,-52.0,-56.0,-60.0,-74.0,-45.0,-53.0,-63.0,-59.0,-100.0,-100.0,-76.0,-88.0,-100.0,-100.0,-88.0,-39.0,-63.0,-87.0,-39.0,-48.0,-82.0,-70.0,-76.0,-58.0,-73.0,-83.0,-75.0,-63.0,-75.0,-74.0,-80.0,-66.0,-60.0,-77.0,-87.0,-87.0,-60.0,-55.0,-88.0,-86.0,-70.0,-73.0,-100.0,-100.0,-100.0,-100.0,-100.0,-100.0,-100.0,-100.0,-100.0,-100.0,-100.0,-100.0,-100.0,-100.0,-100.0,-100.0,-100.0,-100.0,-100.0,-100.0,-100.0,-100.0,-100.0,-100.0,-100.0,-100.0,-100.0,-100.0,-100.0,-100.0,-100.0,-100.0,-100.0,-100.0,-100.0,-100.0,-100.0,-100.0,-100.0,-100.0,-100.0,-100.0,-100.0,-100.0,-100.0,-100.0,-100.0,-100.0,-100.0,-100.0,-100.0,-100.0,-100.0,-100.0,-100.0,-100.0,-100.0,-100.0,-100.0,-100.0
2021.05.22 145857,12.0,24.0,30.322889653179196,-1.866242743930636,-33.611791427745665,-0.5800057437283238,0.8662581571098266,9.632067182080924,0.0035592608138728314,-0.007090273823121388,0.0024116817390173405,-0.08971998545561907,0.060148394786055576,-1.52397067629533,1002.3176128901737,-100.0,-100.0,-100.0,-100.0,-100.0,-100.0,-100.0,-100.0,-100.0,-100.0,-74.0,-100.0,-100.0,-64.0,-74.0,-100.0,-100.0,-100.0,-100.0,-100.0,-71.0,-54.0,-100.0,-100.0,-88.0,-66.0,-56.0,-100.0,-57.0,-78.0,-63.0,-60.0,-48.0,-100.0,-56.0,-69.0,-43.0,-48.0,-50.0,-57.0,-60.0,-49.0,-100.0,-55.0,-69.0,-43.0,-47.0,-57.0,-62.0,-100.0,-68.0,-73.0,-78.0,-100.0,-100.0,-90.0,-44.0,-74.0,-88.0,-44.0,-50.0,-76.0,-100.0,-76.0,-100.0,-73.0,-77.0,-100.0,-63.0,-78.0,-72.0,-77.0,-100.0,-58.0,-100.0,-82.0,-82.0,-100.0,-100.0,-100.0,-100.0,-66.0,-100.0,-88.0,-88.0,-65.0,-100.0,-100.0,-100.0,-100.0,-100.0,-100.0,-100.0,-100.0,-100.0,-100.0,-100.0,-100.0,-100.0,-100.0,-100.0,-100.0,-100.0,-100.0,-100.0,-100.0,-100.0,-100.0,-100.0,-100.0,-100.0,-100.0,-100.0,-100.0,-100.0,-100.0,-100.0,-100.0,-100.0,-100.0,-100.0,-100.0,-100.0,-100.0,-100.0,-100.0,-100.0,-100.0,-100.0,-100.0,-100.0,-100.0,-100.0,-100.0,-100.0,-100.0,-100.0,-100.0,-100.0,-100.0,-100.0,-100.0,-100.0
2021.05.22 150028,20.0,24.0,36.433011578313256,-0.7832530042771085,-28.9984333313253,-0.5315127816144579,1.2370955722891566,9.621359108433735,0.0017295581469879517,-0.005957776108433734,-0.001438845245783132,-0.12779794884733403,0.055333632807505376,-1.4795982902308544,1002.262718313253,-100.0,-100.0,-100.0,-100.0,-100.0,-100.0,-75.0,-100.0,-71.0,-60.0,-66.0,-81.0,-74.0,-60.0,-66.0,-100.0,-100.0,-100.0,-100.0,-100.0,-70.0,-54.0,-100.0,-100.0,-100.0,-68.0,-55.0,-81.0,-63.0,-76.0,-57.0,-60.0,-46.0,-51.0,-58.0,-71.0,-45.0,-53.0,-51.0,-61.0,-60.0,-47.0,-50.0,-58.0,-70.0,-45.0,-54.0,-60.0,-100.0,-100.0,-100.0,-74.0,-82.0,-100.0,-100.0,-87.0,-35.0,-100.0,-87.0,-34.0,-50.0,-79.0,-74.0,-70.0,-67.0,-74.0,-77.0,-75.0,-59.0,-71.0,-75.0,-76.0,-100.0,-53.0,-100.0,-84.0,-85.0,-100.0,-100.0,-88.0,-100.0,-72.0,-66.0,-100.0,-100.0,-100.0,-100.0,-100.0,-100.0,-100.0,-100.0,-100.0,-100.0,-100.0,-100.0,-100.0,-100.0,-100.0,-100.0,-100.0,-100.0,-100.0,-100.0,-100.0,-100.0,-100.0,-100.0,-100.0,-100.0,-100.0,-100.0,-100.0,-100.0,-100.0,-100.0,-100.0,-100.0,-100.0,-100.0,-100.0,-100.0,-100.0,-100.0,-100.0,-100.0,-100.0,-100.0,-100.0,-100.0,-100.0,-100.0,-100.0,-100.0,-100.0,-100.0,-100.0,-100.0,-100.0,-100.0,-100.0,-100.0,-100.0,-100.0
2021.05.22 150041,21.0,24.0,38.09029888622755,-0.05029940113772454,-31.812574347305386,-0.3755312536568863,0.91323741502994,9.672861598802395,-0.001422913852994012,-0.007860775040718564,-0.0034201137257485045,-0.09412989102883963,0.038834782997386706,-1.4871952212499286,1002.2735428143711,-100.0,-100.0,-100.0,-100.0,-100.0,-100.0,-100.0,-100.0,-66.0,-55.0,-65.0,-100.0,-100.0,-55.0,-64.0,-100.0,-100.0,-100.0,-100.0,-100.0,-84.0,-62.0,-100.0,-100.0,-100.0,-63.0,-70.0,-75.0,-100.0,-90.0,-51.0,-100.0,-28.0,-50.0,-68.0,-82.0,-62.0,-67.0,-53.0,-53.0,-100.0,-30.0,-48.0,-67.0,-80.0,-62.0,-66.0,-55.0,-100.0,-100.0,-100.0,-81.0,-76.0,-100.0,-58.0,-100.0,-20.0,-54.0,-100.0,-20.0,-56.0,-63.0,-100.0,-61.0,-64.0,-70.0,-79.0,-100.0,-54.0,-61.0,-68.0,-79.0,-63.0,-100.0,-100.0,-79.0,-80.0,-60.0,-100.0,-84.0,-83.0,-100.0,-100.0,-75.0,-100.0,-56.0,-74.0,-100.0,-100.0,-100.0,-100.0,-100.0,-100.0,-100.0,-100.0,-100.0,-100.0,-100.0,-100.0,-100.0,-100.0,-100.0,-100.0,-100.0,-100.0,-100.0,-100.0,-100.0,-100.0,-100.0,-100.0,-100.0,-100.0,-100.0,-100.0,-100.0,-100.0,-100.0,-100.0,-100.0,-100.0,-100.0,-100.0,-100.0,-100.0,-100.0,-100.0,-100.0,-100.0,-100.0,-100.0,-100.0,-100.0,-100.0,-100.0,-100.0,-100.0,-100.0,-100.0,-100.0,-100.0,-100.0,-100.0
2021.05.22 150052,22.0,24.0,39.379894136842104,0.7035789284736842,-33.854525863157896,-0.39155278642105257,0.9105401070000001,9.66697999473684,-0.002745678637105263,-0.006941358136052631,-0.0021862545273684214,-0.09391711060153807,0.040479465598534554,-1.4651325018782364,1002.2809234736843,-100.0,-100.0,-100.0,-100.0,-100.0,-100.0,-75.0,-100.0,-66.0,-57.0,-65.0,-100.0,-66.0,-56.0,-66.0,-100.0,-100.0,-100.0,-100.0,-100.0,-100.0,-100.0,-100.0,-100.0,-100.0,-62.0,-70.0,-71.0,-77.0,-100.0,-54.0,-100.0,-35.0,-50.0,-65.0,-86.0,-60.0,-63.0,-37.0,-58.0,-100.0,-34.0,-50.0,-66.0,-82.0,-61.0,-62.0,-58.0,-79.0,-100.0,-100.0,-88.0,-69.0,-70.0,-59.0,-100.0,-31.0,-59.0,-100.0,-31.0,-37.0,-63.0,-100.0,-67.0,-100.0,-73.0,-73.0,-72.0,-54.0,-67.0,-72.0,-74.0,-50.0,-100.0,-100.0,-74.0,-73.0,-100.0,-100.0,-82.0,-81.0,-63.0,-61.0,-72.0,-100.0,-49.0,-100.0,-90.0,-80.0,-90.0,-54.0,-100.0,-100.0,-100.0,-100.0,-100.0,-100.0,-100.0,-100.0,-100.0,-100.0,-100.0,-100.0,-100.0,-100.0,-100.0,-100.0,-100.0,-100.0,-100.0,-100.0,-100.0,-100.0,-100.0,-100.0,-100.0,-100.0,-100.0,-100.0,-100.0,-100.0,-100.0,-100.0,-100.0,-100.0,-100.0,-100.0,-100.0,-100.0,-100.0,-100.0,-100.0,-100.0,-100.0,-100.0,-100.0,-100.0,-100.0,-100.0,-100.0,-100.0,-100.0,-100.0
2021.05.22 150104,23.0,24.0,37.993490644970414,-1.0136094440236687,-36.627336686390535,-0.21876486724260355,0.8880079900591716,9.667177310650887,1.0843694082839881e-05,-0.005790568796153847,0.0010301574934911243,-0.09167762014728321,0.022700983584932836,-1.5055843873842227,1002.28286556213,-100.0,-100.0,-100.0,-100.0,-100.0,-100.0,-100.0,-100.0,-66.0,-49.0,-71.0,-100.0,-100.0,-48.0,-68.0,-100.0,-100.0,-100.0,-100.0,-100.0,-100.0,-100.0,-100.0,-100.0,-100.0,-66.0,-80.0,-70.0,-80.0,-100.0,-57.0,-100.0,-40.0,-53.0,-71.0,-82.0,-65.0,-64.0,-36.0,-52.0,-100.0,-42.0,-58.0,-71.0,-83.0,-65.0,-64.0,-52.0,-83.0,-100.0,-87.0,-87.0,-75.0,-61.0,-63.0,-100.0,-34.0,-60.0,-100.0,-100.0,-38.0,-59.0,-100.0,-67.0,-100.0,-100.0,-76.0,-73.0,-57.0,-65.0,-100.0,-76.0,-58.0,-100.0,-100.0,-64.0,-64.0,-100.0,-100.0,-100.0,-76.0,-58.0,-60.0,-64.0,-73.0,-100.0,-100.0,-100.0,-100.0,-100.0,-58.0,-75.0,-57.0,-54.0,-62.0,-100.0,-100.0,-100.0,-100.0,-100.0,-100.0,-100.0,-100.0,-100.0,-100.0,-100.0,-100.0,-100.0,-100.0,-100.0,-100.0,-100.0,-100.0,-100.0,-100.0,-100.0,-100.0,-100.0,-100.0,-100.0,-100.0,-100.0,-100.0,-100.0,-100.0,-100.0,-100.0,-100.0,-100.0,-100.0,-100.0,-100.0,-100.0,-100.0,-100.0,-100.0,-100.0,-100.0,-100.0,-100.0,-100.0,-100.0,-100.0
2021.05.22 150237,31.0,24.0,37.53432948969073,-0.5013401897938145,-25.92123677835051,-0.31004911960463916,0.9191513170103093,9.753113894329896,0.004657060092783506,-0.009037027116752578,0.0027929768249999997,-0.09400712618047426,0.031808940230325045,-1.515008144157449,1002.2742459793814,-100.0,-100.0,-100.0,-100.0,-100.0,-100.0,-75.0,-100.0,-67.0,-51.0,-69.0,-100.0,-65.0,-51.0,-69.0,-100.0,-100.0,-100.0,-100.0,-100.0,-84.0,-100.0,-100.0,-100.0,-100.0,-68.0,-100.0,-79.0,-100.0,-100.0,-52.0,-79.0,-42.0,-52.0,-67.0,-79.0,-58.0,-69.0,-36.0,-48.0,-79.0,-42.0,-52.0,-100.0,-81.0,-57.0,-67.0,-50.0,-100.0,-100.0,-87.0,-90.0,-68.0,-100.0,-58.0,-100.0,-43.0,-58.0,-100.0,-43.0,-36.0,-62.0,-100.0,-72.0,-57.0,-70.0,-73.0,-75.0,-51.0,-70.0,-71.0,-72.0,-54.0,-100.0,-66.0,-73.0,-74.0,-100.0,-100.0,-76.0,-76.0,-63.0,-66.0,-67.0,-64.0,-46.0,-79.0,-100.0,-100.0,-100.0,-100.0,-100.0,-100.0,-100.0,-100.0,-72.0,-100.0,-100.0,-100.0,-100.0,-100.0,-100.0,-100.0,-100.0,-100.0,-100.0,-100.0,-100.0,-100.0,-100.0,-100.0,-100.0,-100.0,-100.0,-100.0,-100.0,-100.0,-100.0,-100.0,-100.0,-100.0,-100.0,-100.0,-100.0,-100.0,-100.0,-100.0,-100.0,-100.0,-100.0,-100.0,-100.0,-100.0,-100.0,-100.0,-100.0,-100.0,-100.0,-100.0,-100.0,-100.0,-100.0,-100.0
2021.05.22 150249,32.0,24.0,40.00896502873563,-2.636206854022989,-27.90896517241379,-0.30381593868390805,1.1164135145977012,9.745295316091957,0.0006881012505747119,-0.006979311020402298,0.0029138974603448273,-0.11419769772596054,0.031217816463757223,-1.552730464387214,1002.2672466666668,-90.0,-100.0,-100.0,-100.0,-100.0,-100.0,-77.0,-100.0,-68.0,-41.0,-57.0,-100.0,-69.0,-45.0,-56.0,-100.0,-100.0,-100.0,-100.0,-100.0,-100.0,-100.0,-100.0,-100.0,-100.0,-82.0,-100.0,-100.0,-100.0,-100.0,-44.0,-100.0,-62.0,-67.0,-75.0,-100.0,-67.0,-72.0,-33.0,-43.0,-100.0,-62.0,-69.0,-75.0,-100.0,-64.0,-70.0,-43.0,-100.0,-56.0,-100.0,-100.0,-54.0,-78.0,-100.0,-100.0,-53.0,-100.0,-100.0,-51.0,-33.0,-78.0,-100.0,-81.0,-55.0,-70.0,-74.0,-76.0,-44.0,-82.0,-73.0,-72.0,-42.0,-100.0,-100.0,-60.0,-61.0,-100.0,-100.0,-85.0,-83.0,-73.0,-100.0,-100.0,-85.0,-62.0,-74.0,-100.0,-100.0,-100.0,-100.0,-100.0,-59.0,-100.0,-100.0,-60.0,-89.0,-75.0,-63.0,-87.0,-86.0,-73.0,-100.0,-100.0,-100.0,-100.0,-100.0,-100.0,-100.0,-100.0,-100.0,-100.0,-100.0,-100.0,-100.0,-100.0,-100.0,-100.0,-100.0,-100.0,-100.0,-100.0,-100.0,-100.0,-100.0,-100.0,-100.0,-100.0,-100.0,-100.0,-100.0,-100.0,-100.0,-100.0,-100.0,-100.0,-100.0,-100.0,-100.0,-100.0,-100.0,-100.0,-100.0
2021.05.22 150301,33.0,24.0,42.2117235862069,-5.334827513793104,-28.77965481034483,-0.37813251011839083,1.0102017681034483,9.687751902298851,0.004792132927873564,-0.00946138994051724,0.0005687366410919542,-0.10403210496337245,0.03908197063786755,-1.622960983336657,1002.2663498850574,-87.0,-100.0,-100.0,-100.0,-100.0,-100.0,-100.0,-81.0,-57.0,-50.0,-68.0,-79.0,-57.0,-50.0,-68.0,-100.0,-100.0,-100.0,-100.0,-100.0,-100.0,-100.0,-100.0,-100.0,-100.0,-87.0,-100.0,-100.0,-100.0,-100.0,-44.0,-100.0,-62.0,-66.0,-100.0,-100.0,-68.0,-70.0,-24.0,-34.0,-100.0,-62.0,-64.0,-100.0,-100.0,-68.0,-70.0,-34.0,-100.0,-55.0,-100.0,-100.0,-80.0,-82.0,-66.0,-100.0,-100.0,-67.0,-100.0,-100.0,-23.0,-86.0,-100.0,-87.0,-100.0,-70.0,-70.0,-100.0,-44.0,-87.0,-71.0,-72.0,-48.0,-100.0,-59.0,-61.0,-62.0,-100.0,-100.0,-100.0,-100.0,-100.0,-100.0,-100.0,-100.0,-72.0,-100.0,-100.0,-79.0,-100.0,-100.0,-100.0,-100.0,-100.0,-100.0,-61.0,-100.0,-100.0,-100.0,-87.0,-86.0,-60.0,-79.0,-80.0,-100.0,-100.0,-100.0,-100.0,-100.0,-100.0,-100.0,-100.0,-100.0,-100.0,-100.0,-100.0,-100.0,-100.0,-100.0,-100.0,-100.0,-100.0,-100.0,-100.0,-100.0,-100.0,-100.0,-100.0,-100.0,-100.0,-100.0,-100.0,-100.0,-100.0,-100.0,-100.0,-100.0,-100.0,-100.0,-100.0,-100.0,-100.0,-100.0
2021.05.22 150313,34.0,24.0,41.95828828342246,-9.165240420855614,-28.501603994652402,-0.33019498229411764,1.030825468342246,9.667363954545454,0.003237259036363636,-0.006121719107754011,0.002874660007754011,-0.10620918547246541,0.03417989616232476,-1.7147723761471836,1002.2684514438503,-100.0,-100.0,-100.0,-100.0,-100.0,-100.0,-69.0,-100.0,-57.0,-48.0,-66.0,-100.0,-57.0,-49.0,-66.0,-100.0,-100.0,-100.0,-100.0,-100.0,-100.0,-100.0,-100.0,-100.0,-100.0,-100.0,-100.0,-100.0,-100.0,-100.0,-37.0,-87.0,-65.0,-67.0,-72.0,-100.0,-64.0,-67.0,-25.0,-35.0,-86.0,-65.0,-67.0,-73.0,-100.0,-64.0,-69.0,-36.0,-100.0,-100.0,-100.0,-100.0,-56.0,-77.0,-100.0,-100.0,-100.0,-100.0,-100.0,-100.0,-26.0,-83.0,-100.0,-86.0,-48.0,-72.0,-68.0,-69.0,-37.0,-85.0,-72.0,-69.0,-42.0,-100.0,-100.0,-58.0,-63.0,-54.0,-100.0,-100.0,-100.0,-100.0,-100.0,-100.0,-76.0,-70.0,-75.0,-100.0,-100.0,-100.0,-100.0,-100.0,-100.0,-100.0,-100.0,-65.0,-100.0,-100.0,-100.0,-87.0,-85.0,-59.0,-78.0,-100.0,-100.0,-100.0,-100.0,-100.0,-100.0,-100.0,-100.0,-100.0,-100.0,-100.0,-100.0,-100.0,-100.0,-100.0,-100.0,-100.0,-100.0,-100.0,-100.0,-100.0,-100.0,-100.0,-100.0,-100.0,-100.0,-100.0,-100.0,-100.0,-100.0,-100.0,-100.0,-100.0,-100.0,-100.0,-100.0,-100.0,-100.0,-100.0,-100.0
2021.05.22 150336,36.0,24.0,33.78939713855422,-10.413252807228915,-24.315903301204816,-0.3274287174578313,0.9277820128313253,9.656017352409638,0.006837274831024098,-0.008581552618975903,0.002351463087650601,-0.09599409397152887,0.03410387486256893,-1.8067684805536846,1002.2645613253013,-90.0,-100.0,-100.0,-100.0,-100.0,-100.0,-66.0,-75.0,-56.0,-51.0,-70.0,-74.0,-56.0,-51.0,-70.0,-76.0,-100.0,-100.0,-100.0,-100.0,-100.0,-100.0,-100.0,-100.0,-100.0,-100.0,-100.0,-100.0,-100.0,-100.0,-40.0,-85.0,-56.0,-70.0,-73.0,-100.0,-63.0,-70.0,-36.0,-42.0,-85.0,-58.0,-70.0,-100.0,-100.0,-63.0,-71.0,-41.0,-100.0,-48.0,-100.0,-100.0,-62.0,-84.0,-73.0,-100.0,-52.0,-100.0,-100.0,-56.0,-36.0,-90.0,-100.0,-87.0,-49.0,-72.0,-64.0,-67.0,-40.0,-100.0,-72.0,-64.0,-48.0,-100.0,-53.0,-61.0,-59.0,-53.0,-100.0,-100.0,-100.0,-82.0,-100.0,-100.0,-100.0,-100.0,-70.0,-100.0,-100.0,-100.0,-100.0,-100.0,-100.0,-100.0,-100.0,-68.0,-100.0,-74.0,-100.0,-87.0,-87.0,-63.0,-72.0,-85.0,-86.0,-57.0,-78.0,-100.0,-100.0,-100.0,-100.0,-100.0,-100.0,-100.0,-100.0,-100.0,-100.0,-100.0,-100.0,-100.0,-100.0,-100.0,-100.0,-100.0,-100.0,-100.0,-100.0,-100.0,-100.0,-100.0,-100.0,-100.0,-100.0,-100.0,-100.0,-100.0,-100.0,-100.0,-100.0,-100.0,-100.0,-100.0,-100.0
2021.05.22 150444,42.0,24.0,26.504301889534883,4.028023199418604,-24.279418302325578,-0.3363018183953488,0.8839197766860466,9.65900306395349,-0.0019249357462209308,-0.00785601123517442,0.0033277950200581398,-0.09132751423952187,0.034919910028652607,-1.3293390170086261,1002.2535140697673,-90.0,-100.0,-100.0,-100.0,-100.0,-100.0,-66.0,-75.0,-56.0,-51.0,-70.0,-74.0,-56.0,-51.0,-70.0,-76.0,-100.0,-100.0,-100.0,-100.0,-100.0,-100.0,-100.0,-100.0,-100.0,-100.0,-100.0,-100.0,-100.0,-100.0,-40.0,-85.0,-56.0,-70.0,-73.0,-100.0,-63.0,-70.0,-36.0,-42.0,-85.0,-58.0,-70.0,-100.0,-100.0,-63.0,-71.0,-41.0,-100.0,-48.0,-100.0,-100.0,-62.0,-84.0,-73.0,-100.0,-52.0,-100.0,-100.0,-56.0,-36.0,-90.0,-100.0,-87.0,-49.0,-72.0,-64.0,-67.0,-40.0,-100.0,-72.0,-64.0,-48.0,-100.0,-53.0,-61.0,-59.0,-53.0,-100.0,-100.0,-100.0,-82.0,-100.0,-100.0,-100.0,-100.0,-70.0,-100.0,-100.0,-100.0,-100.0,-100.0,-100.0,-100.0,-100.0,-68.0,-100.0,-74.0,-100.0,-87.0,-87.0,-63.0,-72.0,-85.0,-86.0,-57.0,-78.0,-100.0,-100.0,-100.0,-100.0,-100.0,-100.0,-100.0,-100.0,-100.0,-100.0,-100.0,-100.0,-100.0,-100.0,-100.0,-100.0,-100.0,-100.0,-100.0,-100.0,-100.0,-100.0,-100.0,-100.0,-100.0,-100.0,-100.0,-100.0,-100.0,-100.0,-100.0,-100.0,-100.0,-100.0,-100.0,-100.0
2021.05.22 150455,43.0,24.0,28.64596446783626,3.0133332888888886,-24.371227789473682,-0.35287172612865497,0.820623130760234,9.66313806140351,0.0031436339514619885,-0.009741693192690058,0.0019933497578947367,-0.08472850406814733,0.036474215207833824,-1.3870538215191044,1002.2627327485379,-88.0,-100.0,-100.0,-100.0,-100.0,-100.0,-64.0,-74.0,-41.0,-48.0,-61.0,-71.0,-41.0,-49.0,-61.0,-100.0,-100.0,-100.0,-100.0,-100.0,-100.0,-100.0,-100.0,-100.0,-100.0,-100.0,-100.0,-100.0,-100.0,-100.0,-58.0,-90.0,-73.0,-75.0,-100.0,-100.0,-67.0,-74.0,-57.0,-68.0,-100.0,-73.0,-75.0,-100.0,-100.0,-66.0,-74.0,-68.0,-100.0,-100.0,-100.0,-100.0,-80.0,-100.0,-100.0,-100.0,-100.0,-100.0,-100.0,-100.0,-56.0,-100.0,-100.0,-90.0,-54.0,-63.0,-54.0,-65.0,-57.0,-100.0,-64.0,-55.0,-100.0,-100.0,-100.0,-73.0,-73.0,-56.0,-100.0,-100.0,-100.0,-90.0,-100.0,-100.0,-100.0,-100.0,-100.0,-100.0,-100.0,-63.0,-100.0,-100.0,-100.0,-100.0,-100.0,-100.0,-100.0,-100.0,-56.0,-100.0,-100.0,-62.0,-100.0,-100.0,-100.0,-100.0,-69.0,-78.0,-83.0,-84.0,-84.0,-81.0,-85.0,-100.0,-100.0,-100.0,-100.0,-100.0,-100.0,-100.0,-100.0,-100.0,-100.0,-100.0,-100.0,-100.0,-100.0,-100.0,-100.0,-100.0,-100.0,-100.0,-100.0,-100.0,-100.0,-100.0,-100.0,-100.0,-100.0,-100.0,-100.0,-100.0,-100.0
2021.05.22 150507,44.0,24.0,28.187646629411766,3.498352884705882,-23.480823288235293,-0.35017312326470595,0.7894809641764706,9.658111076470588,0.00019403965147058835,-0.009622924322941177,5.3899746764706346e-05,-0.0815931623911156,0.03631432129015374,-1.3724449522355024,1002.2518228823532,-88.0,-100.0,-100.0,-83.0,-100.0,-73.0,-61.0,-100.0,-36.0,-49.0,-59.0,-100.0,-36.0,-49.0,-59.0,-100.0,-100.0,-69.0,-100.0,-100.0,-100.0,-100.0,-100.0,-100.0,-100.0,-100.0,-100.0,-100.0,-100.0,-100.0,-68.0,-100.0,-70.0,-100.0,-100.0,-100.0,-67.0,-71.0,-60.0,-63.0,-100.0,-72.0,-100.0,-100.0,-100.0,-100.0,-69.0,-64.0,-100.0,-100.0,-100.0,-100.0,-86.0,-100.0,-100.0,-100.0,-63.0,-100.0,-100.0,-63.0,-61.0,-100.0,-100.0,-100.0,-56.0,-67.0,-48.0,-62.0,-65.0,-100.0,-67.0,-49.0,-100.0,-100.0,-100.0,-73.0,-75.0,-56.0,-100.0,-100.0,-100.0,-100.0,-100.0,-100.0,-100.0,-100.0,-100.0,-100.0,-100.0,-69.0,-100.0,-100.0,-100.0,-100.0,-100.0,-100.0,-100.0,-100.0,-45.0,-100.0,-100.0,-100.0,-100.0,-100.0,-100.0,-100.0,-68.0,-86.0,-100.0,-82.0,-87.0,-86.0,-88.0,-54.0,-100.0,-100.0,-100.0,-100.0,-100.0,-100.0,-100.0,-100.0,-100.0,-100.0,-100.0,-100.0,-100.0,-100.0,-100.0,-100.0,-100.0,-100.0,-100.0,-100.0,-100.0,-100.0,-100.0,-100.0,-100.0,-100.0,-100.0,-100.0,-100.0
2021.05.22 150518,45.0,24.0,28.243058435294117,3.6681175935294115,-23.440235011764702,-0.39443768708235294,0.8557299368235296,9.656111205882352,0.001257663837058824,-0.007693308871764707,-0.002849506664411765,-0.08838609693681489,0.04089832397533905,-1.360133927709916,1002.2348617058823,-87.0,-70.0,-100.0,-84.0,-100.0,-100.0,-64.0,-76.0,-52.0,-52.0,-58.0,-100.0,-50.0,-52.0,-57.0,-76.0,-100.0,-76.0,-100.0,-100.0,-100.0,-100.0,-100.0,-100.0,-100.0,-100.0,-100.0,-100.0,-100.0,-100.0,-59.0,-100.0,-69.0,-80.0,-100.0,-88.0,-70.0,-70.0,-56.0,-68.0,-100.0,-67.0,-79.0,-100.0,-88.0,-100.0,-73.0,-67.0,-100.0,-100.0,-100.0,-100.0,-87.0,-100.0,-100.0,-100.0,-100.0,-100.0,-100.0,-100.0,-56.0,-100.0,-100.0,-100.0,-55.0,-66.0,-51.0,-63.0,-60.0,-90.0,-67.0,-50.0,-75.0,-100.0,-73.0,-78.0,-78.0,-56.0,-100.0,-100.0,-100.0,-100.0,-100.0,-100.0,-100.0,-100.0,-100.0,-100.0,-60.0,-58.0,-100.0,-100.0,-100.0,-100.0,-100.0,-100.0,-100.0,-100.0,-49.0,-100.0,-100.0,-61.0,-100.0,-100.0,-100.0,-73.0,-59.0,-87.0,-100.0,-82.0,-76.0,-84.0,-75.0,-57.0,-90.0,-87.0,-88.0,-100.0,-100.0,-100.0,-100.0,-100.0,-100.0,-100.0,-100.0,-100.0,-100.0,-100.0,-100.0,-100.0,-100.0,-100.0,-100.0,-100.0,-100.0,-100.0,-100.0,-100.0,-100.0,-100.0,-100.0,-100.0,-100.0
2021.05.22 150651,53.0,24.0,32.87296249382716,3.6225925345679024,-16.65666648148148,-0.45976062160493825,0.9648780648148149,9.641775351851852,-0.0011840226296296295,-0.005275311600308642,0.002424607166358025,-0.09971212333551155,0.04765057689682748,-1.4032461731522172,1002.2243306172837,-88.0,-100.0,-100.0,-100.0,-100.0,-100.0,-58.0,-81.0,-39.0,-48.0,-57.0,-100.0,-39.0,-48.0,-57.0,-100.0,-100.0,-100.0,-100.0,-100.0,-100.0,-100.0,-100.0,-100.0,-100.0,-100.0,-100.0,-100.0,-100.0,-100.0,-62.0,-100.0,-69.0,-76.0,-100.0,-100.0,-70.0,-68.0,-100.0,-67.0,-100.0,-72.0,-75.0,-100.0,-100.0,-69.0,-67.0,-67.0,-100.0,-100.0,-100.0,-100.0,-100.0,-100.0,-100.0,-100.0,-63.0,-100.0,-100.0,-59.0,-100.0,-100.0,-100.0,-100.0,-55.0,-66.0,-48.0,-58.0,-62.0,-100.0,-66.0,-50.0,-100.0,-100.0,-79.0,-79.0,-78.0,-55.0,-100.0,-100.0,-100.0,-100.0,-100.0,-100.0,-100.0,-100.0,-100.0,-100.0,-100.0,-61.0,-100.0,-100.0,-100.0,-100.0,-100.0,-100.0,-85.0,-100.0,-50.0,-100.0,-100.0,-100.0,-100.0,-100.0,-100.0,-76.0,-60.0,-100.0,-71.0,-84.0,-77.0,-84.0,-79.0,-56.0,-100.0,-100.0,-100.0,-90.0,-100.0,-100.0,-100.0,-100.0,-100.0,-100.0,-100.0,-100.0,-100.0,-100.0,-100.0,-100.0,-100.0,-100.0,-100.0,-100.0,-100.0,-100.0,-100.0,-100.0,-100.0,-100.0,-100.0,-100.0,-100.0
2021.05.22 150702,54.0,24.0,35.15142819875776,2.062360215962733,-16.485465664596276,-0.4141820231925466,0.903208875652174,9.65252897515528,0.0024662262139751564,-0.006897844827639751,0.006613280374223604,-0.09326393983286356,0.0428441996448991,-1.4629235452746752,1002.2254705590063,-80.0,-74.0,-100.0,-66.0,-88.0,-52.0,-59.0,-65.0,-56.0,-36.0,-47.0,-64.0,-56.0,-41.0,-48.0,-100.0,-100.0,-100.0,-100.0,-100.0,-100.0,-100.0,-100.0,-100.0,-100.0,-100.0,-100.0,-100.0,-100.0,-100.0,-100.0,-100.0,-73.0,-100.0,-100.0,-100.0,-68.0,-74.0,-63.0,-71.0,-100.0,-74.0,-84.0,-100.0,-100.0,-67.0,-74.0,-71.0,-100.0,-100.0,-100.0,-100.0,-100.0,-100.0,-100.0,-100.0,-64.0,-100.0,-100.0,-100.0,-63.0,-100.0,-100.0,-100.0,-51.0,-65.0,-68.0,-59.0,-100.0,-100.0,-65.0,-67.0,-100.0,-100.0,-85.0,-85.0,-86.0,-53.0,-100.0,-100.0,-100.0,-100.0,-100.0,-100.0,-100.0,-100.0,-100.0,-100.0,-58.0,-79.0,-100.0,-100.0,-100.0,-100.0,-100.0,-100.0,-100.0,-100.0,-50.0,-100.0,-100.0,-100.0,-100.0,-100.0,-100.0,-85.0,-79.0,-100.0,-100.0,-73.0,-100.0,-72.0,-100.0,-100.0,-100.0,-100.0,-100.0,-100.0,-81.0,-69.0,-80.0,-82.0,-100.0,-100.0,-100.0,-100.0,-100.0,-100.0,-100.0,-100.0,-100.0,-100.0,-100.0,-100.0,-100.0,-100.0,-100.0,-100.0,-100.0,-100.0,-100.0,-100.0,-100.0
2021.05.22 150713,55.0,24.0,34.97851795679013,-0.3507407338888889,-16.162592361111113,-0.48408689280864203,0.9177182025925927,9.637060864197531,0.0012632088379629632,-0.005693867401234567,0.0026885613299382715,-0.09490084257206795,0.050156256596106466,-1.531230135464374,1002.2078814197531,-80.0,-100.0,-100.0,-68.0,-100.0,-100.0,-57.0,-56.0,-55.0,-33.0,-40.0,-57.0,-57.0,-34.0,-40.0,-100.0,-100.0,-61.0,-90.0,-100.0,-100.0,-100.0,-100.0,-100.0,-100.0,-100.0,-100.0,-100.0,-100.0,-100.0,-73.0,-100.0,-68.0,-100.0,-100.0,-100.0,-100.0,-69.0,-100.0,-70.0,-100.0,-65.0,-100.0,-100.0,-100.0,-100.0,-68.0,-71.0,-100.0,-100.0,-100.0,-100.0,-100.0,-100.0,-100.0,-100.0,-69.0,-100.0,-100.0,-69.0,-100.0,-100.0,-100.0,-100.0,-50.0,-61.0,-68.0,-57.0,-100.0,-100.0,-61.0,-68.0,-100.0,-100.0,-100.0,-100.0,-100.0,-53.0,-100.0,-100.0,-100.0,-100.0,-100.0,-100.0,-100.0,-100.0,-100.0,-100.0,-49.0,-100.0,-100.0,-100.0,-100.0,-100.0,-100.0,-100.0,-100.0,-100.0,-49.0,-100.0,-100.0,-100.0,-100.0,-100.0,-100.0,-81.0,-100.0,-100.0,-100.0,-71.0,-100.0,-72.0,-100.0,-100.0,-100.0,-100.0,-100.0,-100.0,-100.0,-73.0,-78.0,-77.0,-86.0,-100.0,-100.0,-100.0,-100.0,-100.0,-100.0,-100.0,-100.0,-100.0,-100.0,-100.0,-100.0,-100.0,-100.0,-100.0,-100.0,-100.0,-100.0,-100.0,-100.0
2021.05.22 150724,56.0,24.0,33.622993497005986,-2.301197569161677,-15.804430844311376,-0.4751845242275449,0.9014241122754493,9.64988007784431,-0.0006474440467065867,-0.008530166334431138,0.00957997646197605,-0.09326463703534556,0.04915592271638026,-1.590945030400853,1002.2061258682636,-75.0,-66.0,-100.0,-74.0,-85.0,-50.0,-45.0,-64.0,-60.0,-32.0,-47.0,-63.0,-60.0,-32.0,-47.0,-100.0,-100.0,-63.0,-88.0,-74.0,-100.0,-100.0,-100.0,-100.0,-100.0,-100.0,-100.0,-100.0,-100.0,-100.0,-72.0,-100.0,-74.0,-82.0,-78.0,-100.0,-64.0,-72.0,-60.0,-73.0,-100.0,-71.0,-82.0,-100.0,-100.0,-64.0,-70.0,-73.0,-100.0,-100.0,-100.0,-100.0,-100.0,-100.0,-100.0,-100.0,-100.0,-100.0,-100.0,-100.0,-62.0,-100.0,-100.0,-100.0,-54.0,-63.0,-71.0,-45.0,-72.0,-100.0,-63.0,-71.0,-100.0,-100.0,-100.0,-100.0,-100.0,-56.0,-100.0,-100.0,-100.0,-100.0,-100.0,-100.0,-100.0,-100.0,-100.0,-100.0,-53.0,-100.0,-100.0,-100.0,-100.0,-100.0,-100.0,-100.0,-65.0,-100.0,-55.0,-100.0,-100.0,-100.0,-100.0,-100.0,-100.0,-100.0,-100.0,-100.0,-100.0,-75.0,-100.0,-75.0,-100.0,-100.0,-100.0,-100.0,-100.0,-100.0,-78.0,-100.0,-80.0,-78.0,-78.0,-74.0,-86.0,-100.0,-100.0,-100.0,-100.0,-100.0,-100.0,-100.0,-100.0,-100.0,-100.0,-100.0,-100.0,-100.0,-100.0,-100.0,-100.0,-100.0,-100.0
2021.05.22 150901,64.0,24.0,38.35499944318181,3.289431756818182,-19.873295198863634,-0.41280934582386364,0.9673935257386365,9.64306902840909,-0.00015618703892045541,-0.008021077102556819,0.004286469144602272,-0.1000343926293267,0.04282332856779575,-1.4270275438373738,1002.2069472727272,-75.0,-61.0,-100.0,-63.0,-85.0,-100.0,-54.0,-55.0,-61.0,-36.0,-41.0,-56.0,-61.0,-34.0,-41.0,-100.0,-100.0,-100.0,-90.0,-100.0,-100.0,-100.0,-100.0,-100.0,-100.0,-100.0,-100.0,-100.0,-100.0,-100.0,-100.0,-100.0,-68.0,-86.0,-100.0,-100.0,-65.0,-71.0,-100.0,-72.0,-100.0,-69.0,-86.0,-100.0,-100.0,-100.0,-72.0,-71.0,-100.0,-100.0,-100.0,-100.0,-100.0,-100.0,-100.0,-100.0,-61.0,-100.0,-100.0,-57.0,-100.0,-100.0,-100.0,-100.0,-57.0,-66.0,-78.0,-54.0,-100.0,-100.0,-66.0,-77.0,-100.0,-100.0,-100.0,-88.0,-90.0,-55.0,-100.0,-100.0,-100.0,-100.0,-100.0,-100.0,-100.0,-100.0,-100.0,-100.0,-57.0,-100.0,-100.0,-100.0,-100.0,-100.0,-100.0,-100.0,-61.0,-100.0,-44.0,-100.0,-100.0,-100.0,-100.0,-100.0,-100.0,-100.0,-100.0,-100.0,-100.0,-70.0,-100.0,-71.0,-100.0,-100.0,-100.0,-86.0,-100.0,-100.0,-83.0,-69.0,-78.0,-79.0,-78.0,-78.0,-85.0,-100.0,-100.0,-100.0,-100.0,-100.0,-100.0,-100.0,-100.0,-100.0,-100.0,-100.0,-100.0,-100.0,-100.0,-100.0,-100.0,-100.0,-100.0
2021.05.22 150913,65.0,24.0,44.276510947674424,6.701860346511628,-19.371976488372095,-0.4557195917709302,0.8405039902325582,9.65740234011628,0.006747930038953488,-0.010828652005232559,0.0015413694116279072,-0.08683435270172908,0.04721810033261978,-1.376079523286154,1002.210055872093,-60.0,-61.0,-100.0,-57.0,-76.0,-100.0,-47.0,-63.0,-66.0,-39.0,-60.0,-60.0,-68.0,-40.0,-63.0,-56.0,-79.0,-46.0,-72.0,-100.0,-100.0,-100.0,-100.0,-100.0,-100.0,-100.0,-100.0,-100.0,-100.0,-100.0,-100.0,-100.0,-72.0,-82.0,-100.0,-100.0,-100.0,-74.0,-100.0,-77.0,-100.0,-72.0,-82.0,-100.0,-100.0,-100.0,-74.0,-75.0,-100.0,-100.0,-100.0,-100.0,-100.0,-100.0,-100.0,-100.0,-100.0,-100.0,-100.0,-100.0,-61.0,-100.0,-100.0,-100.0,-44.0,-65.0,-80.0,-48.0,-100.0,-100.0,-62.0,-80.0,-100.0,-100.0,-100.0,-100.0,-100.0,-43.0,-100.0,-100.0,-100.0,-100.0,-100.0,-100.0,-100.0,-100.0,-100.0,-100.0,-52.0,-100.0,-100.0,-100.0,-100.0,-100.0,-100.0,-100.0,-100.0,-100.0,-100.0,-100.0,-100.0,-100.0,-100.0,-100.0,-100.0,-100.0,-100.0,-100.0,-100.0,-66.0,-100.0,-66.0,-100.0,-100.0,-100.0,-100.0,-100.0,-100.0,-77.0,-100.0,-85.0,-85.0,-79.0,-100.0,-86.0,-71.0,-87.0,-78.0,-80.0,-100.0,-100.0,-100.0,-100.0,-100.0,-100.0,-100.0,-100.0,-100.0,-100.0,-100.0,-100.0,-100.0,-100.0
2021.05.22 150925,66.0,24.0,42.61349069822485,6.040473279289942,-24.81372755621302,-0.29406180346745564,0.9046257381065087,9.65785546153846,0.004500161013609467,-0.008277404938165681,0.001579574326035503,-0.09356826972547011,0.030403180900618474,-1.3714408119754677,1002.205787337278,-69.0,-61.0,-100.0,-60.0,-73.0,-100.0,-56.0,-62.0,-72.0,-44.0,-56.0,-63.0,-71.0,-44.0,-56.0,-53.0,-74.0,-55.0,-71.0,-59.0,-100.0,-100.0,-100.0,-100.0,-100.0,-100.0,-100.0,-100.0,-100.0,-100.0,-100.0,-100.0,-73.0,-100.0,-100.0,-100.0,-100.0,-69.0,-100.0,-78.0,-100.0,-75.0,-100.0,-100.0,-100.0,-100.0,-68.0,-78.0,-100.0,-100.0,-100.0,-100.0,-100.0,-100.0,-100.0,-100.0,-69.0,-100.0,-100.0,-70.0,-63.0,-100.0,-100.0,-100.0,-43.0,-62.0,-85.0,-54.0,-74.0,-100.0,-62.0,-84.0,-100.0,-100.0,-100.0,-100.0,-100.0,-41.0,-100.0,-100.0,-100.0,-100.0,-100.0,-100.0,-100.0,-100.0,-100.0,-100.0,-53.0,-100.0,-100.0,-100.0,-100.0,-100.0,-100.0,-100.0,-68.0,-100.0,-100.0,-100.0,-100.0,-100.0,-100.0,-100.0,-100.0,-100.0,-100.0,-100.0,-100.0,-68.0,-100.0,-68.0,-100.0,-100.0,-100.0,-100.0,-100.0,-100.0,-72.0,-84.0,-80.0,-79.0,-100.0,-100.0,-100.0,-100.0,-85.0,-100.0,-100.0,-100.0,-100.0,-100.0,-100.0,-100.0,-100.0,-100.0,-100.0,-100.0,-100.0,-100.0,-100.0,-100.0,-100.0
2021.05.22 150936,67.0,24.0,45.79771005421687,-1.0395180524096388,-27.039397234939752,-0.2732274520783133,0.8891574737951808,9.657171120481927,-0.0017994765731927703,-0.006347846606626506,0.0009310175274096392,-0.09186869033847943,0.02820816263135698,-1.5360119034008808,1002.2051590361444,-67.0,-58.0,-63.0,-52.0,-64.0,-100.0,-48.0,-63.0,-74.0,-48.0,-58.0,-63.0,-76.0,-48.0,-57.0,-49.0,-79.0,-53.0,-100.0,-62.0,-100.0,-100.0,-100.0,-100.0,-100.0,-100.0,-100.0,-100.0,-100.0,-100.0,-100.0,-100.0,-71.0,-100.0,-100.0,-100.0,-66.0,-78.0,-66.0,-71.0,-100.0,-73.0,-100.0,-100.0,-100.0,-67.0,-78.0,-71.0,-100.0,-100.0,-100.0,-100.0,-100.0,-100.0,-100.0,-100.0,-72.0,-100.0,-100.0,-72.0,-64.0,-100.0,-100.0,-100.0,-48.0,-56.0,-80.0,-48.0,-100.0,-100.0,-56.0,-80.0,-100.0,-100.0,-100.0,-100.0,-100.0,-48.0,-100.0,-100.0,-100.0,-100.0,-100.0,-100.0,-100.0,-100.0,-100.0,-100.0,-100.0,-100.0,-100.0,-100.0,-90.0,-100.0,-100.0,-100.0,-70.0,-100.0,-100.0,-100.0,-100.0,-100.0,-100.0,-100.0,-100.0,-100.0,-100.0,-100.0,-100.0,-73.0,-100.0,-75.0,-100.0,-88.0,-100.0,-67.0,-100.0,-100.0,-79.0,-100.0,-100.0,-100.0,-88.0,-72.0,-100.0,-100.0,-80.0,-79.0,-80.0,-80.0,-79.0,-100.0,-100.0,-100.0,-100.0,-100.0,-100.0,-100.0,-100.0,-100.0,-100.0,-100.0,-100.0
2021.05.22 151102,74.0,24.0,42.58561360818714,6.01999990643275,-25.23508749122807,-0.15819932733450293,0.7860542207017542,9.679043423976609,0.0013038935444444448,-0.010288256836842103,0.0004644004619883052,-0.08114465576602001,0.016313691955735076,-1.3809045114015277,1002.1711861988305,-65.0,-61.0,-100.0,-57.0,-64.0,-64.0,-58.0,-64.0,-70.0,-41.0,-62.0,-64.0,-69.0,-41.0,-62.0,-45.0,-73.0,-100.0,-77.0,-57.0,-100.0,-100.0,-100.0,-100.0,-100.0,-100.0,-100.0,-100.0,-100.0,-100.0,-80.0,-100.0,-76.0,-84.0,-100.0,-100.0,-68.0,-74.0,-100.0,-78.0,-90.0,-76.0,-84.0,-100.0,-100.0,-68.0,-75.0,-79.0,-100.0,-100.0,-100.0,-100.0,-100.0,-100.0,-100.0,-100.0,-62.0,-100.0,-100.0,-65.0,-100.0,-100.0,-100.0,-100.0,-51.0,-57.0,-84.0,-60.0,-79.0,-100.0,-56.0,-87.0,-100.0,-100.0,-100.0,-100.0,-100.0,-50.0,-100.0,-100.0,-100.0,-100.0,-100.0,-100.0,-100.0,-100.0,-100.0,-100.0,-53.0,-100.0,-100.0,-100.0,-100.0,-100.0,-100.0,-100.0,-100.0,-100.0,-67.0,-100.0,-100.0,-100.0,-100.0,-100.0,-100.0,-100.0,-100.0,-100.0,-100.0,-73.0,-100.0,-71.0,-100.0,-100.0,-100.0,-72.0,-72.0,-100.0,-77.0,-100.0,-85.0,-84.0,-100.0,-79.0,-88.0,-100.0,-81.0,-78.0,-78.0,-75.0,-79.0,-100.0,-100.0,-100.0,-100.0,-100.0,-100.0,-100.0,-100.0,-100.0,-100.0,-100.0,-100.0
2021.05.22 151114,75.0,24.0,49.221656289940825,7.624260194082842,-22.3693488816568,-0.213593958304142,0.7374849558579881,9.676725677514794,-0.000571104676627219,-0.007301466313905326,0.0018000644538461537,-0.07613708173646726,0.022065558809653767,-1.3804064848013884,1002.1647931952663,-84.0,-100.0,-100.0,-72.0,-100.0,-71.0,-61.0,-100.0,-77.0,-57.0,-72.0,-100.0,-78.0,-57.0,-72.0,-61.0,-73.0,-100.0,-100.0,-58.0,-100.0,-100.0,-100.0,-100.0,-100.0,-100.0,-100.0,-100.0,-100.0,-100.0,-100.0,-100.0,-76.0,-100.0,-82.0,-100.0,-100.0,-75.0,-100.0,-81.0,-100.0,-77.0,-100.0,-100.0,-100.0,-66.0,-75.0,-81.0,-100.0,-100.0,-100.0,-100.0,-100.0,-100.0,-100.0,-100.0,-72.0,-100.0,-100.0,-72.0,-100.0,-100.0,-100.0,-100.0,-44.0,-49.0,-100.0,-61.0,-100.0,-100.0,-49.0,-100.0,-100.0,-100.0,-100.0,-100.0,-100.0,-44.0,-100.0,-100.0,-100.0,-100.0,-100.0,-100.0,-100.0,-100.0,-100.0,-100.0,-100.0,-100.0,-100.0,-100.0,-100.0,-100.0,-100.0,-100.0,-100.0,-100.0,-100.0,-100.0,-100.0,-100.0,-100.0,-100.0,-100.0,-100.0,-100.0,-100.0,-100.0,-87.0,-100.0,-86.0,-100.0,-100.0,-100.0,-100.0,-69.0,-100.0,-100.0,-100.0,-100.0,-100.0,-100.0,-100.0,-100.0,-100.0,-80.0,-68.0,-69.0,-66.0,-67.0,-73.0,-73.0,-100.0,-100.0,-100.0,-100.0,-100.0,-100.0,-100.0,-100.0,-100.0,-100.0
2021.05.22 151126,76.0,24.0,43.87999947619048,4.428571354761905,-23.58821400595238,-0.15582262699940475,0.6746090830952381,9.687025547619047,0.0008944811541666658,-0.011362820648809523,0.0008544839616071442,-0.06967074120239838,0.01618280667112444,-1.4312217505205245,1002.1607885714286,-88.0,-100.0,-100.0,-73.0,-100.0,-100.0,-69.0,-100.0,-77.0,-62.0,-71.0,-100.0,-77.0,-61.0,-71.0,-100.0,-75.0,-100.0,-100.0,-59.0,-100.0,-100.0,-100.0,-100.0,-100.0,-100.0,-100.0,-100.0,-100.0,-100.0,-100.0,-100.0,-78.0,-100.0,-100.0,-100.0,-65.0,-74.0,-100.0,-82.0,-100.0,-80.0,-100.0,-100.0,-100.0,-69.0,-75.0,-81.0,-100.0,-100.0,-100.0,-100.0,-100.0,-100.0,-100.0,-100.0,-66.0,-100.0,-100.0,-66.0,-69.0,-100.0,-100.0,-100.0,-40.0,-50.0,-90.0,-69.0,-100.0,-100.0,-51.0,-100.0,-100.0,-100.0,-100.0,-100.0,-100.0,-40.0,-100.0,-100.0,-100.0,-100.0,-100.0,-100.0,-100.0,-100.0,-100.0,-100.0,-100.0,-100.0,-100.0,-100.0,-100.0,-100.0,-100.0,-100.0,-100.0,-100.0,-100.0,-100.0,-100.0,-100.0,-100.0,-100.0,-100.0,-100.0,-100.0,-100.0,-100.0,-100.0,-100.0,-100.0,-100.0,-100.0,-100.0,-100.0,-100.0,-100.0,-100.0,-100.0,-100.0,-100.0,-100.0,-100.0,-100.0,-55.0,-77.0,-100.0,-100.0,-56.0,-57.0,-70.0,-71.0,-80.0,-88.0,-81.0,-86.0,-100.0,-100.0,-100.0,-100.0,-100.0,-100.0
2021.05.22 151138,77.0,24.0,40.381083837349394,4.579156556024095,-27.18433694578313,-0.26914577161445785,0.8370619464457831,9.67344021084337,0.001909873830421687,-0.005630264022590362,0.0012438099617469894,-0.0863338198108845,0.027842192962812352,-1.3957434188888733,1002.1575858433737,-85.0,-100.0,-100.0,-70.0,-100.0,-100.0,-65.0,-100.0,-78.0,-100.0,-72.0,-100.0,-76.0,-57.0,-70.0,-71.0,-79.0,-100.0,-100.0,-59.0,-100.0,-100.0,-100.0,-100.0,-100.0,-100.0,-100.0,-100.0,-100.0,-100.0,-100.0,-100.0,-82.0,-100.0,-100.0,-100.0,-73.0,-75.0,-100.0,-80.0,-100.0,-80.0,-100.0,-100.0,-100.0,-72.0,-76.0,-82.0,-100.0,-100.0,-100.0,-100.0,-100.0,-100.0,-100.0,-100.0,-68.0,-100.0,-100.0,-68.0,-68.0,-100.0,-100.0,-100.0,-39.0,-46.0,-100.0,-66.0,-100.0,-100.0,-46.0,-100.0,-100.0,-100.0,-100.0,-100.0,-100.0,-40.0,-100.0,-100.0,-100.0,-100.0,-100.0,-100.0,-100.0,-100.0,-100.0,-100.0,-100.0,-100.0,-100.0,-100.0,-100.0,-100.0,-100.0,-100.0,-100.0,-100.0,-100.0,-100.0,-100.0,-100.0,-100.0,-100.0,-100.0,-100.0,-100.0,-100.0,-100.0,-100.0,-100.0,-100.0,-100.0,-100.0,-100.0,-60.0,-60.0,-100.0,-100.0,-100.0,-100.0,-100.0,-100.0,-100.0,-100.0,-100.0,-72.0,-100.0,-100.0,-49.0,-47.0,-60.0,-59.0,-77.0,-87.0,-100.0,-88.0,-87.0,-78.0,-72.0,-87.0,-100.0,-100.0
2021.05.22 151309,85.0,24.0,48.68838263473054,0.16706586413173652,-24.603592479041918,-0.42312855685029943,0.8589449434131735,9.653435583832335,-0.00035481380898203646,-0.006408598125149702,-0.003815164458682634,-0.08871102466911608,0.04383643953029262,-1.5175288501613868,1002.1302017964072,-88.0,-100.0,-100.0,-100.0,-100.0,-78.0,-70.0,-100.0,-78.0,-52.0,-71.0,-100.0,-78.0,-57.0,-68.0,-100.0,-79.0,-100.0,-100.0,-63.0,-100.0,-100.0,-100.0,-100.0,-100.0,-100.0,-100.0,-100.0,-100.0,-100.0,-100.0,-100.0,-78.0,-100.0,-100.0,-100.0,-62.0,-76.0,-100.0,-80.0,-100.0,-78.0,-100.0,-100.0,-100.0,-100.0,-75.0,-79.0,-100.0,-100.0,-100.0,-100.0,-100.0,-100.0,-100.0,-100.0,-100.0,-100.0,-100.0,-100.0,-65.0,-100.0,-100.0,-100.0,-30.0,-50.0,-100.0,-69.0,-100.0,-100.0,-51.0,-100.0,-100.0,-100.0,-100.0,-100.0,-100.0,-30.0,-100.0,-100.0,-100.0,-100.0,-100.0,-100.0,-100.0,-100.0,-100.0,-100.0,-100.0,-100.0,-100.0,-100.0,-100.0,-100.0,-100.0,-100.0,-100.0,-100.0,-100.0,-100.0,-100.0,-100.0,-100.0,-100.0,-100.0,-100.0,-100.0,-100.0,-100.0,-100.0,-100.0,-100.0,-100.0,-100.0,-100.0,-100.0,-60.0,-100.0,-100.0,-100.0,-100.0,-100.0,-100.0,-100.0,-100.0,-58.0,-72.0,-72.0,-73.0,-59.0,-56.0,-68.0,-67.0,-76.0,-100.0,-76.0,-100.0,-100.0,-100.0,-100.0,-100.0,-90.0,-100.0
2021.05.22 151320,86.0,24.0,46.994457120481925,-0.6777108266265061,-27.516505644578316,-0.36319751343373496,0.8025767906626505,9.663978807228915,0.005843698832228916,-0.009350654174096385,0.002134348431325302,-0.08294364152453745,0.037538602981851,-1.5326857789453254,1002.124196987952,-100.0,-100.0,-100.0,-77.0,-100.0,-100.0,-77.0,-100.0,-79.0,-56.0,-74.0,-100.0,-79.0,-56.0,-75.0,-100.0,-100.0,-86.0,-100.0,-76.0,-100.0,-100.0,-100.0,-100.0,-100.0,-100.0,-100.0,-100.0,-100.0,-100.0,-83.0,-100.0,-77.0,-100.0,-77.0,-100.0,-74.0,-77.0,-100.0,-84.0,-100.0,-77.0,-100.0,-79.0,-100.0,-73.0,-77.0,-86.0,-100.0,-100.0,-100.0,-100.0,-100.0,-100.0,-100.0,-100.0,-73.0,-100.0,-100.0,-73.0,-100.0,-100.0,-100.0,-100.0,-36.0,-52.0,-100.0,-78.0,-84.0,-100.0,-51.0,-100.0,-100.0,-100.0,-100.0,-100.0,-100.0,-36.0,-100.0,-100.0,-100.0,-100.0,-100.0,-100.0,-100.0,-100.0,-100.0,-100.0,-100.0,-100.0,-100.0,-100.0,-100.0,-100.0,-100.0,-100.0,-100.0,-100.0,-100.0,-100.0,-100.0,-100.0,-100.0,-100.0,-100.0,-100.0,-100.0,-100.0,-100.0,-100.0,-100.0,-100.0,-100.0,-100.0,-100.0,-64.0,-63.0,-100.0,-100.0,-100.0,-100.0,-100.0,-100.0,-100.0,-100.0,-100.0,-100.0,-100.0,-100.0,-76.0,-75.0,-100.0,-100.0,-100.0,-87.0,-100.0,-90.0,-100.0,-75.0,-100.0,-100.0,-100.0,-75.0
2021.05.22 151331,87.0,24.0,46.395265721893495,-1.0583431752662722,-29.09183384023669,-0.4910521862011834,0.8844096031952662,9.650120357988166,0.0008313550198224844,-0.008197883673964497,-0.00046628193254437866,-0.09136326910828693,0.050901777651050695,-1.5301392233583349,1002.1270544378699,-100.0,-100.0,-100.0,-100.0,-100.0,-100.0,-75.0,-100.0,-82.0,-61.0,-76.0,-100.0,-81.0,-62.0,-75.0,-100.0,-100.0,-100.0,-100.0,-100.0,-100.0,-100.0,-100.0,-100.0,-100.0,-100.0,-100.0,-100.0,-100.0,-100.0,-100.0,-100.0,-78.0,-100.0,-75.0,-100.0,-71.0,-75.0,-75.0,-80.0,-100.0,-79.0,-100.0,-75.0,-100.0,-72.0,-75.0,-79.0,-100.0,-100.0,-100.0,-100.0,-100.0,-100.0,-100.0,-100.0,-72.0,-100.0,-100.0,-72.0,-100.0,-100.0,-100.0,-100.0,-48.0,-54.0,-87.0,-73.0,-100.0,-100.0,-54.0,-87.0,-100.0,-100.0,-100.0,-100.0,-100.0,-47.0,-100.0,-100.0,-100.0,-100.0,-100.0,-100.0,-100.0,-100.0,-100.0,-100.0,-100.0,-100.0,-100.0,-100.0,-100.0,-100.0,-100.0,-100.0,-100.0,-100.0,-100.0,-100.0,-100.0,-100.0,-100.0,-100.0,-100.0,-100.0,-100.0,-100.0,-100.0,-100.0,-100.0,-100.0,-100.0,-100.0,-100.0,-66.0,-66.0,-100.0,-100.0,-100.0,-100.0,-100.0,-100.0,-100.0,-100.0,-80.0,-100.0,-79.0,-80.0,-100.0,-100.0,-100.0,-100.0,-100.0,-88.0,-100.0,-90.0,-100.0,-100.0,-100.0,-100.0,-100.0,-100.0
2021.05.22 151342,88.0,24.0,46.46733652071006,-1.0324260140236685,-30.020946301775155,-0.4314804803550296,0.8384947640236686,9.659966281065088,0.005530318644378697,-0.00594599594260355,0.0045543799316568045,-0.08667108116770633,0.04450938670163055,-1.5320428010274674,1002.1288222485207,-100.0,-100.0,-100.0,-80.0,-100.0,-100.0,-75.0,-100.0,-76.0,-55.0,-72.0,-100.0,-76.0,-55.0,-71.0,-100.0,-90.0,-100.0,-100.0,-100.0,-100.0,-100.0,-100.0,-100.0,-100.0,-100.0,-100.0,-100.0,-100.0,-100.0,-100.0,-100.0,-77.0,-100.0,-100.0,-100.0,-63.0,-75.0,-66.0,-77.0,-100.0,-77.0,-100.0,-100.0,-100.0,-63.0,-75.0,-78.0,-100.0,-100.0,-100.0,-100.0,-100.0,-100.0,-100.0,-100.0,-63.0,-100.0,-100.0,-63.0,-66.0,-100.0,-100.0,-100.0,-41.0,-62.0,-100.0,-75.0,-100.0,-100.0,-63.0,-100.0,-100.0,-100.0,-100.0,-100.0,-100.0,-41.0,-100.0,-100.0,-100.0,-100.0,-100.0,-100.0,-100.0,-100.0,-100.0,-100.0,-100.0,-100.0,-100.0,-100.0,-100.0,-100.0,-100.0,-100.0,-100.0,-100.0,-100.0,-100.0,-100.0,-100.0,-100.0,-100.0,-100.0,-100.0,-100.0,-100.0,-100.0,-100.0,-100.0,-100.0,-100.0,-100.0,-100.0,-100.0,-100.0,-100.0,-100.0,-100.0,-100.0,-100.0,-100.0,-100.0,-100.0,-100.0,-100.0,-100.0,-100.0,-100.0,-84.0,-100.0,-100.0,-100.0,-100.0,-100.0,-100.0,-100.0,-100.0,-100.0,-100.0,-100.0,-100.0
