Timestamp,True_X,True_Y,Mean_Mag_x,Mean_Mag_y,Mean_Mag_z,Mean_Acc_x,Mean_Acc_y,Mean_Acc_z,Mean_Gyro_x,Mean_Gyro_y,Mean_Gyro_z,Mean_Orn_x,Mean_Orn_y,Mean_Orn_z,Mean_Pressure,00:1a:ab:a0:de:a4,00:1a:ac:a0:de:b5,00:1a:ac:a0:de:b6,00:1a:ac:a0:de:b7,00:1a:ac:a0:de:b8,00:1a:ac:a0:de:d3,00:1a:ac:a0:de:f6,00:1a:ac:a0:de:g9,00:1a:ac:a0:de:h2,00:1a:ac:a0:de:h3,00:1a:ac:a0:de:h4,00:1a:ac:a0:de:h7,00:1a:ac:a0:de:i2,00:1a:ac:a0:de:i8,00:1a:ac:a0:de:k4,00:1a:ac:a0:de:k7,00:1a:ac:a0:de:k8,00:1a:ac:a0:de:n6,00:1a:ac:a0:de:n8,00:1a:ac:a0:de:p1,00:1a:ac:a0:de:p3,00:1a:ac:a0:de:p4,00:1a:ac:a0:de:p5,00:1a:ac:a0:de:p6,00:1a:ac:a0:de:p7,00:1a:ac:a0:de:p8,00:1a:ac:a0:de:r1,00:1a:ac:a0:de:r2,00:1a:ac:a0:de:r5,00:1a:ac:a0:de:r6,00:1a:ac:a0:de:r9,00:1a:ac:a0:de:s1,00:1a:ac:a0:de:s2,00:1a:ac:a0:de:s3,00:1a:ac:a0:de:s4,00:1a:ac:a0:de:s5,00:1a:ac:a0:de:s6,00:1a:ac:a0:de:s7,00:1a:ac:a0:de:t3,00:1a:ac:a0:de:t7,00:1a:ac:a0:de:t9,00:1a:ac:a0:de:u1,00:1a:ac:a0:de:u2,00:1a:ac:a0:de:u3,00:1a:ac:a0:de:u4,00:1a:ac:a0:de:u5,00:1a:ac:a0:de:v7,00:1a:ac:a0:de:v8,00:1a:ac:a0:de:w2,00:1a:ac:a0:de:w3,00:1a:ac:a0:de:w6,00:1a:ac:a0:de:w7,00:1a:ac:a0:de:w8,00:1a:ac:a0:de:w9,00:1a:ac:a0:de:x1,00:1a:ac:a0:de:x2,00:1a:ac:a0:de:x3,00:1a:ac:a0:de:x4,00:1a:ac:a0:de:x7,00:1a:ab:a0:de:a1,00:1a:ac:a0:de:f9,00:1a:ac:a0:de:j8,00:1a:ac:a0:de:p2,00:1a:ac:a0:de:t5,00:1a:ac:a0:de:t8,00:1a:ac:a0:de:g5,00:1a:ac:a0:de:g8,00:1a:ac:a0:de:l2,00:1a:ac:a0:de:n3,00:1a:ac:a0:de:j7,00:1a:ac:a0:de:n7,00:1a:ac:a0:de:b3,00:1a:ac:a0:de:i3,00:1a:ac:a0:de:t4,00:1a:ac:a0:de:h6,00:1a:ac:a0:de:l9,00:1a:ab:a0:de:a7,00:1a:ac:a0:de:i1,00:1a:ac:a0:de:n4,00:1a:ac:a0:de:n9,00:1a:ac:a0:de:t1,00:1a:ac:a0:de:f2,00:1a:ac:a0:de:k9,00:1a:ab:a0:de:a2,00:1a:ac:a0:de:f8,00:1a:ac:a0:de:f5,00:1a:ac:a0:de:t6,00:1a:ac:a0:de:e9,00:1a:ac:a0:de:j9,00:1a:ac:a0:de:f7,00:1a:ac:a0:de:l1,00:1a:ac:a0:de:f3,00:1a:ac:a0:de:g2,00:1a:ac:a0:de:h9,00:1a:ac:a0:de:b2,00:1a:ac:a0:de:l8,00:1a:ac:a0:de:i9,88:36:6c:88:5b:3e,00:1a:ac:a0:de:n5,00:1a:ac:a0:de:t2,00:1a:ac:a0:de:k2,00:1a:ac:a0:de:l7,00:1a:ac:a0:de:d4,00:1a:ac:a0:de:e8,00:1a:ac:a0:de:g7,00:1a:ac:a0:de:k6,90:9f:33:a4:06:5c,00:1a:ac:a0:de:w4,00:1a:ac:a0:de:b1,00:1a:ac:a0:de:k1,00:1a:ac:a0:de:r7,00:1a:ac:a0:de:q4,00:1a:ac:a0:de:r4,00:1a:ac:a0:de:v1,00:1a:ac:a0:de:w1,00:1a:ac:a0:de:k3,00:1a:ac:a0:de:g1,00:1a:ac:a0:de:q2,00:1a:ac:a0:de:b4,00:1a:ac:a0:de:r3,00:1a:ac:a0:de:v9,00:1a:ab:a0:de:a8,00:1a:ac:a0:de:d2,00:1a:ac:a0:de:i7,00:1a:ac:a0:de:j1,00:1a:ac:a0:de:j2,00:1a:ac:a0:de:i6,00:1a:ac:a0:de:r8,00:1a:ac:a0:de:w5,00:1a:ac:a0:de:j5,00:1a:ac:a0:de:h5,00:1a:ac:a0:de:m4,00:1a:ac:a0:de:u8,00:1a:ab:a0:de:a9,00:1a:ac:a0:de:c2,00:1a:ac:a0:de:m7,00:1a:ac:a0:de:c1,00:1a:ac:a0:de:v3,00:1a:ac:a0:de:k5,00:1a:ac:a0:de:m5,00:1a:ac:a0:de:q5,00:1a:ac:a0:de:q6,00:1a:ac:a0:de:v2,00:1a:ac:a0:de:f1,00:1a:ac:a0:de:m6,00:1a:ac:a0:de:p9,00:1a:ac:a0:de:q3,00:1a:ac:a0:de:u6,00:1a:ac:a0:de:u9,00:1a:ac:a0:de:q8,00:1a:ac:a0:de:s8,00:1a:ac:a0:de:x5,00:1a:ac:a0:de:j4
2021.01.30 154902,1.0,27.0,37.618420464912276,-4.004210479824561,-9.200526095614036,-5.562698482456141,8.22506902631579,0.3004394818421053,-0.0036776872834210525,0.00025100125219298247,0.0021150405812280703,-0.9754234975890109,1.516842248146994,0.23874058595678785,1016.1914014912282,-86.0,-67.0,-79.0,-67.0,-69.0,-78.0,-77.0,-85.0,-84.0,-77.0,-71.0,-87.0,-77.0,-63.0,-89.0,-65.0,-75.0,-87.0,-82.0,-74.0,-68.0,-83.0,-58.0,-65.0,-69.0,-78.0,-73.0,-78.0,-50.0,-55.0,-80.0,-89.0,-40.0,-47.0,-62.0,-68.0,-65.0,-69.0,-87.0,-76.0,-69.0,-83.0,-55.0,-65.0,-69.0,-78.0,-74.0,-78.0,-52.0,-56.0,-81.0,-90.0,-41.0,-47.0,-62.0,-68.0,-66.0,-69.0,-100.0,-100.0,-100.0,-100.0,-100.0,-100.0,-100.0,-100.0,-100.0,-100.0,-100.0,-100.0,-100.0,-100.0,-100.0,-100.0,-100.0,-100.0,-100.0,-100.0,-100.0,-100.0,-100.0,-100.0,-100.0,-100.0,-100.0,-100.0,-100.0,-100.0,-100.0,-100.0,-100.0,-100.0,-100.0,-100.0,-100.0,-100.0,-100.0,-100.0,-100.0,-100.0,-100.0,-100.0,-100.0,-100.0,-100.0,-100.0,-100.0,-100.0,-100.0,-100.0,-100.0,-100.0,-100.0,-100.0,-100.0,-100.0,-100.0,-100.0,-100.0,-100.0,-100.0,-100.0,-100.0,-100.0,-100.0,-100.0,-100.0,-100.0,-100.0,-100.0,-100.0,-100.0,-100.0,-100.0,-100.0,-100.0,-100.0,-100.0,-100.0,-100.0,-100.0,-100.0,-100.0,-100.0,-100.0,-100.0,-100.0,-100.0,-100.0,-100.0,-100.0,-100.0,-100.0
2021.01.30 154914,1.0,26.0,51.86224051724139,-5.908448179310346,-1.963448250948276,-5.307818285344828,8.392057025862071,0.20720797184827588,-0.002571995559655172,0.0010971770712931035,0.001251957842068965,-1.0062869982472782,1.5318054186886754,-0.0023144873324279867,1016.1753674137931,-100.0,-61.0,-74.0,-68.0,-76.0,-76.0,-74.0,-89.0,-89.0,-100.0,-70.0,-81.0,-77.0,-51.0,-100.0,-59.0,-70.0,-100.0,-100.0,-100.0,-68.0,-100.0,-63.0,-69.0,-77.0,-89.0,-80.0,-86.0,-48.0,-64.0,-100.0,-90.0,-50.0,-52.0,-68.0,-76.0,-77.0,-78.0,-100.0,-100.0,-69.0,-100.0,-62.0,-69.0,-77.0,-100.0,-79.0,-85.0,-48.0,-64.0,-100.0,-89.0,-50.0,-53.0,-68.0,-76.0,-78.0,-78.0,-77.0,-100.0,-100.0,-100.0,-100.0,-100.0,-100.0,-100.0,-100.0,-100.0,-100.0,-100.0,-100.0,-100.0,-100.0,-100.0,-100.0,-100.0,-100.0,-100.0,-100.0,-100.0,-100.0,-100.0,-100.0,-100.0,-100.0,-100.0,-100.0,-100.0,-100.0,-100.0,-100.0,-100.0,-100.0,-100.0,-100.0,-100.0,-100.0,-100.0,-100.0,-100.0,-100.0,-100.0,-100.0,-100.0,-100.0,-100.0,-100.0,-100.0,-100.0,-100.0,-100.0,-100.0,-100.0,-100.0,-100.0,-100.0,-100.0,-100.0,-100.0,-100.0,-100.0,-100.0,-100.0,-100.0,-100.0,-100.0,-100.0,-100.0,-100.0,-100.0,-100.0,-100.0,-100.0,-100.0,-100.0,-100.0,-100.0,-100.0,-100.0,-100.0,-100.0,-100.0,-100.0,-100.0,-100.0,-100.0,-100.0,-100.0,-100.0,-100.0,-100.0,-100.0,-100.0
2021.01.30 154926,1.0,25.0,48.30833263888889,-19.399999805555556,-4.7061110351851845,-4.957279471296296,8.597996009259258,0.15824382855185182,-0.0031793499396296303,0.00015454885027777808,0.0010442401716666667,-1.0474152664343517,1.5388785446131672,0.0965501359293099,1016.1815853703704,-100.0,-63.0,-100.0,-65.0,-73.0,-82.0,-79.0,-83.0,-100.0,-78.0,-71.0,-100.0,-74.0,-49.0,-100.0,-58.0,-67.0,-100.0,-100.0,-100.0,-100.0,-100.0,-60.0,-61.0,-66.0,-87.0,-100.0,-87.0,-46.0,-60.0,-79.0,-91.0,-39.0,-46.0,-59.0,-73.0,-69.0,-73.0,-100.0,-100.0,-100.0,-100.0,-100.0,-61.0,-100.0,-86.0,-100.0,-85.0,-47.0,-60.0,-100.0,-91.0,-40.0,-46.0,-59.0,-74.0,-72.0,-73.0,-100.0,-89.0,-100.0,-100.0,-100.0,-100.0,-100.0,-100.0,-100.0,-100.0,-100.0,-100.0,-100.0,-100.0,-100.0,-100.0,-100.0,-100.0,-100.0,-100.0,-100.0,-100.0,-100.0,-100.0,-100.0,-100.0,-100.0,-100.0,-100.0,-100.0,-100.0,-100.0,-100.0,-100.0,-100.0,-100.0,-100.0,-100.0,-100.0,-100.0,-100.0,-100.0,-100.0,-100.0,-100.0,-100.0,-100.0,-100.0,-100.0,-100.0,-100.0,-100.0,-100.0,-100.0,-100.0,-100.0,-100.0,-100.0,-100.0,-100.0,-100.0,-100.0,-100.0,-100.0,-100.0,-100.0,-100.0,-100.0,-100.0,-100.0,-100.0,-100.0,-100.0,-100.0,-100.0,-100.0,-100.0,-100.0,-100.0,-100.0,-100.0,-100.0,-100.0,-100.0,-100.0,-100.0,-100.0,-100.0,-100.0,-100.0,-100.0,-100.0,-100.0,-100.0,-100.0
2021.01.30 154938,1.0,24.0,20.52777760185185,-36.96722174074074,-35.226666370370374,-5.716375407407407,8.118121273148148,-0.014942047561111114,0.004925927074351851,-0.003680327376481481,0.004211689703333334,-0.9570816059907278,1.5734940436151292,1.7009299331241183,1016.2053120370372,-100.0,-63.0,-100.0,-69.0,-72.0,-79.0,-73.0,-76.0,-100.0,-100.0,-75.0,-100.0,-100.0,-46.0,-100.0,-56.0,-69.0,-100.0,-76.0,-100.0,-65.0,-88.0,-59.0,-55.0,-60.0,-79.0,-63.0,-76.0,-48.0,-61.0,-100.0,-81.0,-39.0,-47.0,-60.0,-63.0,-76.0,-56.0,-81.0,-77.0,-64.0,-88.0,-59.0,-55.0,-60.0,-79.0,-68.0,-75.0,-48.0,-61.0,-100.0,-81.0,-40.0,-47.0,-60.0,-63.0,-56.0,-56.0,-100.0,-100.0,-91.0,-89.0,-83.0,-75.0,-83.0,-100.0,-100.0,-100.0,-100.0,-100.0,-100.0,-100.0,-100.0,-100.0,-100.0,-100.0,-100.0,-100.0,-100.0,-100.0,-100.0,-100.0,-100.0,-100.0,-100.0,-100.0,-100.0,-100.0,-100.0,-100.0,-100.0,-100.0,-100.0,-100.0,-100.0,-100.0,-100.0,-100.0,-100.0,-100.0,-100.0,-100.0,-100.0,-100.0,-100.0,-100.0,-100.0,-100.0,-100.0,-100.0,-100.0,-100.0,-100.0,-100.0,-100.0,-100.0,-100.0,-100.0,-100.0,-100.0,-100.0,-100.0,-100.0,-100.0,-100.0,-100.0,-100.0,-100.0,-100.0,-100.0,-100.0,-100.0,-100.0,-100.0,-100.0,-100.0,-100.0,-100.0,-100.0,-100.0,-100.0,-100.0,-100.0,-100.0,-100.0,-100.0,-100.0,-100.0,-100.0,-100.0,-100.0,-100.0,-100.0
2021.01.30 154948,2.0,24.0,16.98842955785124,-32.3533879338843,-35.86561944628099,-5.617186354545455,8.191882640495868,0.0058570688462809915,-0.002794824691735537,0.001898796349421488,0.002157288340330578,-0.9695574163405363,1.56998654436474,1.6898555716207204,1016.2240538842975,-100.0,-100.0,-100.0,-70.0,-80.0,-75.0,-70.0,-75.0,-100.0,-80.0,-68.0,-100.0,-100.0,-48.0,-100.0,-60.0,-76.0,-100.0,-100.0,-100.0,-100.0,-100.0,-100.0,-57.0,-100.0,-78.0,-62.0,-71.0,-50.0,-68.0,-100.0,-82.0,-100.0,-50.0,-59.0,-60.0,-64.0,-61.0,-77.0,-100.0,-100.0,-90.0,-100.0,-57.0,-63.0,-78.0,-63.0,-71.0,-50.0,-67.0,-100.0,-83.0,-100.0,-50.0,-59.0,-60.0,-65.0,-62.0,-100.0,-100.0,-100.0,-87.0,-86.0,-100.0,-86.0,-89.0,-89.0,-87.0,-84.0,-100.0,-100.0,-100.0,-100.0,-100.0,-100.0,-100.0,-100.0,-100.0,-100.0,-100.0,-100.0,-100.0,-100.0,-100.0,-100.0,-100.0,-100.0,-100.0,-100.0,-100.0,-100.0,-100.0,-100.0,-100.0,-100.0,-100.0,-100.0,-100.0,-100.0,-100.0,-100.0,-100.0,-100.0,-100.0,-100.0,-100.0,-100.0,-100.0,-100.0,-100.0,-100.0,-100.0,-100.0,-100.0,-100.0,-100.0,-100.0,-100.0,-100.0,-100.0,-100.0,-100.0,-100.0,-100.0,-100.0,-100.0,-100.0,-100.0,-100.0,-100.0,-100.0,-100.0,-100.0,-100.0,-100.0,-100.0,-100.0,-100.0,-100.0,-100.0,-100.0,-100.0,-100.0,-100.0,-100.0,-100.0,-100.0,-100.0,-100.0,-100.0,-100.0,-100.0,-100.0
2021.01.30 155000,3.0,24.0,19.659999824561403,-33.59315750877193,-36.334210236842104,-5.534891272807018,8.226623157894737,-0.2902323101999999,-0.000569776523859649,0.0006100186516666661,0.0016702878238596495,-0.9778067746706176,1.6232315824742902,1.6803304302064996,1016.2112712280701,-100.0,-65.0,-100.0,-65.0,-74.0,-100.0,-72.0,-78.0,-81.0,-100.0,-70.0,-100.0,-100.0,-56.0,-100.0,-61.0,-76.0,-100.0,-76.0,-100.0,-74.0,-84.0,-52.0,-55.0,-64.0,-75.0,-65.0,-72.0,-50.0,-62.0,-70.0,-86.0,-43.0,-45.0,-66.0,-58.0,-63.0,-61.0,-100.0,-100.0,-75.0,-85.0,-52.0,-56.0,-56.0,-76.0,-65.0,-71.0,-50.0,-62.0,-70.0,-86.0,-43.0,-45.0,-66.0,-58.0,-65.0,-62.0,-100.0,-100.0,-100.0,-100.0,-85.0,-78.0,-84.0,-100.0,-100.0,-100.0,-89.0,-87.0,-90.0,-100.0,-100.0,-100.0,-100.0,-100.0,-100.0,-100.0,-100.0,-100.0,-100.0,-100.0,-100.0,-100.0,-100.0,-100.0,-100.0,-100.0,-100.0,-100.0,-100.0,-100.0,-100.0,-100.0,-100.0,-100.0,-100.0,-100.0,-100.0,-100.0,-100.0,-100.0,-100.0,-100.0,-100.0,-100.0,-100.0,-100.0,-100.0,-100.0,-100.0,-100.0,-100.0,-100.0,-100.0,-100.0,-100.0,-100.0,-100.0,-100.0,-100.0,-100.0,-100.0,-100.0,-100.0,-100.0,-100.0,-100.0,-100.0,-100.0,-100.0,-100.0,-100.0,-100.0,-100.0,-100.0,-100.0,-100.0,-100.0,-100.0,-100.0,-100.0,-100.0,-100.0,-100.0,-100.0,-100.0,-100.0,-100.0,-100.0,-100.0,-100.0,-100.0
2021.01.30 155010,4.0,24.0,20.35472701818182,-29.12999954545454,-36.53454489090909,-5.545575786363638,8.22779475909091,-0.2130469251690909,0.0035975520362727287,-0.004415833851909089,0.002835803102545455,-0.9771490573883057,1.6092242002487183,1.5873482476581227,1016.1900638181817,-100.0,-100.0,-100.0,-65.0,-69.0,-83.0,-68.0,-78.0,-100.0,-100.0,-68.0,-88.0,-76.0,-58.0,-100.0,-63.0,-77.0,-100.0,-100.0,-100.0,-68.0,-86.0,-52.0,-61.0,-59.0,-82.0,-64.0,-79.0,-52.0,-64.0,-69.0,-82.0,-35.0,-39.0,-62.0,-63.0,-63.0,-70.0,-100.0,-100.0,-69.0,-87.0,-50.0,-61.0,-59.0,-81.0,-63.0,-79.0,-52.0,-65.0,-69.0,-83.0,-35.0,-40.0,-62.0,-63.0,-100.0,-70.0,-100.0,-100.0,-100.0,-100.0,-85.0,-76.0,-85.0,-100.0,-100.0,-83.0,-100.0,-100.0,-100.0,-89.0,-89.0,-91.0,-100.0,-100.0,-100.0,-100.0,-100.0,-100.0,-100.0,-100.0,-100.0,-100.0,-100.0,-100.0,-100.0,-100.0,-100.0,-100.0,-100.0,-100.0,-100.0,-100.0,-100.0,-100.0,-100.0,-100.0,-100.0,-100.0,-100.0,-100.0,-100.0,-100.0,-100.0,-100.0,-100.0,-100.0,-100.0,-100.0,-100.0,-100.0,-100.0,-100.0,-100.0,-100.0,-100.0,-100.0,-100.0,-100.0,-100.0,-100.0,-100.0,-100.0,-100.0,-100.0,-100.0,-100.0,-100.0,-100.0,-100.0,-100.0,-100.0,-100.0,-100.0,-100.0,-100.0,-100.0,-100.0,-100.0,-100.0,-100.0,-100.0,-100.0,-100.0,-100.0,-100.0,-100.0,-100.0,-100.0,-100.0,-100.0,-100.0
2021.01.30 155020,5.0,24.0,23.796545272727272,-26.257636027272728,-33.32618136363636,-5.585364288181818,8.20211078909091,-0.16722921169999996,0.001609463232181818,0.00018231553536363619,0.005867916030727271,-0.9725514986298301,1.6009035836566579,1.4532543409954417,1016.1863172727274,-100.0,-100.0,-100.0,-54.0,-64.0,-67.0,-69.0,-82.0,-100.0,-100.0,-68.0,-100.0,-100.0,-60.0,-100.0,-60.0,-72.0,-100.0,-75.0,-66.0,-66.0,-86.0,-51.0,-59.0,-55.0,-73.0,-64.0,-77.0,-54.0,-69.0,-100.0,-84.0,-39.0,-37.0,-55.0,-63.0,-63.0,-73.0,-100.0,-66.0,-66.0,-84.0,-50.0,-60.0,-57.0,-73.0,-65.0,-76.0,-54.0,-69.0,-100.0,-84.0,-39.0,-37.0,-57.0,-63.0,-63.0,-74.0,-100.0,-100.0,-100.0,-88.0,-88.0,-75.0,-88.0,-90.0,-88.0,-100.0,-100.0,-100.0,-90.0,-100.0,-79.0,-90.0,-87.0,-100.0,-100.0,-100.0,-100.0,-100.0,-100.0,-100.0,-100.0,-100.0,-100.0,-100.0,-100.0,-100.0,-100.0,-100.0,-100.0,-100.0,-100.0,-100.0,-100.0,-100.0,-100.0,-100.0,-100.0,-100.0,-100.0,-100.0,-100.0,-100.0,-100.0,-100.0,-100.0,-100.0,-100.0,-100.0,-100.0,-100.0,-100.0,-100.0,-100.0,-100.0,-100.0,-100.0,-100.0,-100.0,-100.0,-100.0,-100.0,-100.0,-100.0,-100.0,-100.0,-100.0,-100.0,-100.0,-100.0,-100.0,-100.0,-100.0,-100.0,-100.0,-100.0,-100.0,-100.0,-100.0,-100.0,-100.0,-100.0,-100.0,-100.0,-100.0,-100.0,-100.0,-100.0,-100.0,-100.0,-100.0,-100.0
2021.01.30 155030,6.0,24.0,25.41853172477064,-24.849357568807342,-29.275045532110095,-5.461143136697246,8.288583917431191,-0.23081687699816517,-0.006176699600642202,0.00521800533614679,-0.00048121059284403676,-0.9874419061415786,1.6130047456933818,1.3598259053099047,1016.1953555045873,-100.0,-64.0,-65.0,-50.0,-60.0,-64.0,-71.0,-81.0,-100.0,-100.0,-70.0,-100.0,-100.0,-60.0,-100.0,-58.0,-63.0,-100.0,-100.0,-100.0,-61.0,-83.0,-100.0,-59.0,-55.0,-79.0,-62.0,-76.0,-56.0,-68.0,-69.0,-88.0,-35.0,-34.0,-54.0,-61.0,-61.0,-71.0,-75.0,-100.0,-59.0,-82.0,-57.0,-59.0,-55.0,-79.0,-65.0,-76.0,-56.0,-67.0,-69.0,-88.0,-34.0,-34.0,-53.0,-61.0,-59.0,-71.0,-100.0,-100.0,-100.0,-89.0,-85.0,-100.0,-85.0,-100.0,-89.0,-100.0,-100.0,-86.0,-100.0,-100.0,-100.0,-100.0,-100.0,-80.0,-100.0,-100.0,-100.0,-100.0,-100.0,-100.0,-100.0,-100.0,-100.0,-100.0,-100.0,-100.0,-100.0,-100.0,-100.0,-100.0,-100.0,-100.0,-100.0,-100.0,-100.0,-100.0,-100.0,-100.0,-100.0,-100.0,-100.0,-100.0,-100.0,-100.0,-100.0,-100.0,-100.0,-100.0,-100.0,-100.0,-100.0,-100.0,-100.0,-100.0,-100.0,-100.0,-100.0,-100.0,-100.0,-100.0,-100.0,-100.0,-100.0,-100.0,-100.0,-100.0,-100.0,-100.0,-100.0,-100.0,-100.0,-100.0,-100.0,-100.0,-100.0,-100.0,-100.0,-100.0,-100.0,-100.0,-100.0,-100.0,-100.0,-100.0,-100.0,-100.0,-100.0,-100.0,-100.0,-100.0,-100.0
2021.01.30 155040,7.0,24.0,25.561110842592598,-26.09388857407407,-26.98111065740741,-5.464466700925927,8.272418921296294,-0.42301071777777777,0.0034270444763888886,-0.0034936741331481483,-0.0017499026016666666,-0.9855486137999429,1.6478623339423426,1.3963973091708288,1016.1999181481484,-100.0,-55.0,-74.0,-58.0,-63.0,-73.0,-69.0,-82.0,-100.0,-100.0,-67.0,-100.0,-100.0,-72.0,-100.0,-52.0,-63.0,-100.0,-73.0,-100.0,-62.0,-86.0,-63.0,-59.0,-58.0,-78.0,-60.0,-75.0,-53.0,-68.0,-100.0,-85.0,-27.0,-33.0,-60.0,-60.0,-62.0,-71.0,-100.0,-73.0,-56.0,-85.0,-62.0,-59.0,-56.0,-78.0,-60.0,-75.0,-52.0,-69.0,-100.0,-85.0,-26.0,-33.0,-61.0,-60.0,-63.0,-72.0,-100.0,-100.0,-100.0,-87.0,-85.0,-72.0,-85.0,-100.0,-100.0,-81.0,-89.0,-100.0,-100.0,-100.0,-85.0,-100.0,-100.0,-84.0,-100.0,-100.0,-100.0,-100.0,-100.0,-100.0,-100.0,-100.0,-100.0,-100.0,-100.0,-100.0,-100.0,-100.0,-100.0,-100.0,-100.0,-100.0,-100.0,-100.0,-100.0,-100.0,-100.0,-100.0,-100.0,-100.0,-100.0,-100.0,-100.0,-100.0,-100.0,-100.0,-100.0,-100.0,-100.0,-100.0,-100.0,-100.0,-100.0,-100.0,-100.0,-100.0,-100.0,-100.0,-100.0,-100.0,-100.0,-100.0,-100.0,-100.0,-100.0,-100.0,-100.0,-100.0,-100.0,-100.0,-100.0,-100.0,-100.0,-100.0,-100.0,-100.0,-100.0,-100.0,-100.0,-100.0,-100.0,-100.0,-100.0,-100.0,-100.0,-100.0,-100.0,-100.0,-100.0,-100.0,-100.0
2021.01.30 155049,8.0,24.0,23.99119237614679,-31.23853174311927,-25.289174036697247,-5.407480626605506,8.305190160550458,-0.3944402995137613,0.0004083157036697248,-0.00030780323880733957,0.0020014803302752294,-0.9922512108032856,1.643720422316035,1.5192568214661484,1016.1898591743117,-100.0,-61.0,-100.0,-54.0,-68.0,-76.0,-68.0,-77.0,-100.0,-100.0,-67.0,-100.0,-66.0,-100.0,-100.0,-54.0,-66.0,-100.0,-70.0,-75.0,-69.0,-88.0,-50.0,-53.0,-51.0,-80.0,-63.0,-74.0,-54.0,-73.0,-78.0,-86.0,-32.0,-31.0,-60.0,-65.0,-62.0,-68.0,-100.0,-75.0,-69.0,-87.0,-49.0,-53.0,-57.0,-79.0,-62.0,-74.0,-55.0,-73.0,-77.0,-85.0,-31.0,-31.0,-60.0,-65.0,-60.0,-68.0,-100.0,-100.0,-100.0,-89.0,-86.0,-70.0,-86.0,-100.0,-100.0,-100.0,-81.0,-100.0,-89.0,-87.0,-100.0,-91.0,-100.0,-86.0,-91.0,-100.0,-100.0,-100.0,-100.0,-100.0,-100.0,-100.0,-100.0,-100.0,-100.0,-100.0,-100.0,-100.0,-100.0,-100.0,-100.0,-100.0,-100.0,-100.0,-100.0,-100.0,-100.0,-100.0,-100.0,-100.0,-100.0,-100.0,-100.0,-100.0,-100.0,-100.0,-100.0,-100.0,-100.0,-100.0,-100.0,-100.0,-100.0,-100.0,-100.0,-100.0,-100.0,-100.0,-100.0,-100.0,-100.0,-100.0,-100.0,-100.0,-100.0,-100.0,-100.0,-100.0,-100.0,-100.0,-100.0,-100.0,-100.0,-100.0,-100.0,-100.0,-100.0,-100.0,-100.0,-100.0,-100.0,-100.0,-100.0,-100.0,-100.0,-100.0,-100.0,-100.0,-100.0,-100.0,-100.0
2021.01.30 155058,9.0,24.0,22.024285491071428,-34.332321,-23.864999767857142,-5.3656981026785715,8.335710513392858,-0.3954615145446429,0.0009967138845535714,0.0009454011151785711,-0.002570651866607143,-0.9973474517464638,1.644529355423791,1.636654264160565,1016.1844720535713,-76.0,-61.0,-100.0,-51.0,-68.0,-73.0,-73.0,-77.0,-100.0,-100.0,-65.0,-100.0,-66.0,-100.0,-100.0,-54.0,-67.0,-100.0,-75.0,-100.0,-56.0,-82.0,-48.0,-53.0,-57.0,-80.0,-65.0,-76.0,-59.0,-73.0,-100.0,-85.0,-32.0,-34.0,-63.0,-58.0,-64.0,-67.0,-100.0,-100.0,-55.0,-83.0,-50.0,-53.0,-57.0,-80.0,-65.0,-76.0,-60.0,-73.0,-100.0,-84.0,-31.0,-34.0,-63.0,-58.0,-64.0,-68.0,-100.0,-100.0,-100.0,-100.0,-84.0,-75.0,-85.0,-100.0,-88.0,-78.0,-100.0,-100.0,-100.0,-100.0,-100.0,-100.0,-100.0,-100.0,-100.0,-80.0,-88.0,-90.0,-88.0,-100.0,-100.0,-100.0,-100.0,-100.0,-100.0,-100.0,-100.0,-100.0,-100.0,-100.0,-100.0,-100.0,-100.0,-100.0,-100.0,-100.0,-100.0,-100.0,-100.0,-100.0,-100.0,-100.0,-100.0,-100.0,-100.0,-100.0,-100.0,-100.0,-100.0,-100.0,-100.0,-100.0,-100.0,-100.0,-100.0,-100.0,-100.0,-100.0,-100.0,-100.0,-100.0,-100.0,-100.0,-100.0,-100.0,-100.0,-100.0,-100.0,-100.0,-100.0,-100.0,-100.0,-100.0,-100.0,-100.0,-100.0,-100.0,-100.0,-100.0,-100.0,-100.0,-100.0,-100.0,-100.0,-100.0,-100.0,-100.0,-100.0,-100.0,-100.0,-100.0
2021.01.30 155108,10.0,24.0,20.262702459459465,-36.814053711711715,-23.44810779279279,-5.3678347081081075,8.334621554054054,-0.3079986482972973,0.0033998337954054053,-0.0020605255552252257,-0.0003292893028828831,-0.9977023644490285,1.6282543115787678,1.7374667444744625,1016.1902848648649,-74.0,-60.0,-100.0,-54.0,-66.0,-100.0,-68.0,-78.0,-100.0,-75.0,-61.0,-100.0,-64.0,-100.0,-100.0,-54.0,-70.0,-100.0,-73.0,-69.0,-60.0,-86.0,-52.0,-56.0,-52.0,-69.0,-67.0,-72.0,-54.0,-76.0,-74.0,-84.0,-37.0,-35.0,-59.0,-60.0,-66.0,-69.0,-100.0,-69.0,-60.0,-87.0,-52.0,-56.0,-51.0,-69.0,-66.0,-71.0,-55.0,-77.0,-73.0,-83.0,-37.0,-35.0,-59.0,-60.0,-100.0,-69.0,-100.0,-100.0,-100.0,-88.0,-83.0,-70.0,-82.0,-100.0,-100.0,-100.0,-77.0,-100.0,-91.0,-76.0,-100.0,-100.0,-100.0,-86.0,-87.0,-83.0,-85.0,-100.0,-84.0,-88.0,-88.0,-100.0,-100.0,-100.0,-100.0,-100.0,-100.0,-100.0,-100.0,-100.0,-100.0,-100.0,-100.0,-100.0,-100.0,-100.0,-100.0,-100.0,-100.0,-100.0,-100.0,-100.0,-100.0,-100.0,-100.0,-100.0,-100.0,-100.0,-100.0,-100.0,-100.0,-100.0,-100.0,-100.0,-100.0,-100.0,-100.0,-100.0,-100.0,-100.0,-100.0,-100.0,-100.0,-100.0,-100.0,-100.0,-100.0,-100.0,-100.0,-100.0,-100.0,-100.0,-100.0,-100.0,-100.0,-100.0,-100.0,-100.0,-100.0,-100.0,-100.0,-100.0,-100.0,-100.0,-100.0,-100.0,-100.0,-100.0,-100.0,-100.0,-100.0
2021.01.30 155118,11.0,24.0,18.275454363636367,-37.41272689090909,-22.59545429090909,-5.357168145454546,8.33092276818182,-0.5054749451363636,-0.0023389475636363642,-0.0003230366526363639,0.0024748373474545453,-0.9968292675235054,1.66482797535983,1.8467658682302994,1016.1770261818182,-100.0,-65.0,-69.0,-45.0,-68.0,-76.0,-64.0,-84.0,-100.0,-72.0,-61.0,-100.0,-67.0,-63.0,-100.0,-61.0,-71.0,-100.0,-73.0,-68.0,-62.0,-100.0,-49.0,-62.0,-54.0,-71.0,-64.0,-67.0,-58.0,-79.0,-100.0,-87.0,-39.0,-44.0,-53.0,-60.0,-58.0,-66.0,-100.0,-67.0,-63.0,-100.0,-49.0,-62.0,-55.0,-71.0,-61.0,-66.0,-57.0,-80.0,-100.0,-87.0,-40.0,-43.0,-54.0,-60.0,-55.0,-66.0,-100.0,-100.0,-100.0,-91.0,-86.0,-72.0,-86.0,-90.0,-89.0,-100.0,-73.0,-82.0,-100.0,-100.0,-100.0,-100.0,-100.0,-100.0,-85.0,-100.0,-100.0,-100.0,-100.0,-100.0,-100.0,-87.0,-100.0,-100.0,-100.0,-100.0,-100.0,-100.0,-100.0,-100.0,-100.0,-100.0,-100.0,-100.0,-100.0,-100.0,-100.0,-100.0,-100.0,-100.0,-100.0,-100.0,-100.0,-100.0,-100.0,-100.0,-100.0,-100.0,-100.0,-100.0,-100.0,-100.0,-100.0,-100.0,-100.0,-100.0,-100.0,-100.0,-100.0,-100.0,-100.0,-100.0,-100.0,-100.0,-100.0,-100.0,-100.0,-100.0,-100.0,-100.0,-100.0,-100.0,-100.0,-100.0,-100.0,-100.0,-100.0,-100.0,-100.0,-100.0,-100.0,-100.0,-100.0,-100.0,-100.0,-100.0,-100.0,-100.0,-100.0,-100.0,-100.0
2021.01.30 155128,12.0,24.0,22.19582586086957,-35.572173408695654,-23.859651860869562,-5.49750481652174,8.258561739130435,-0.30682111273913043,0.0006407710909565218,-0.0029980469406956523,0.0018762858113043478,-0.9826458386752916,1.626827273161515,1.668765808188397,1016.1702740000001,-75.0,-68.0,-100.0,-56.0,-70.0,-76.0,-60.0,-80.0,-100.0,-100.0,-61.0,-100.0,-100.0,-100.0,-100.0,-61.0,-73.0,-79.0,-78.0,-65.0,-61.0,-100.0,-56.0,-52.0,-59.0,-73.0,-66.0,-68.0,-57.0,-79.0,-100.0,-85.0,-41.0,-45.0,-57.0,-57.0,-56.0,-67.0,-78.0,-62.0,-60.0,-100.0,-57.0,-52.0,-59.0,-72.0,-65.0,-68.0,-58.0,-79.0,-100.0,-85.0,-41.0,-46.0,-60.0,-57.0,-58.0,-67.0,-100.0,-100.0,-100.0,-84.0,-83.0,-76.0,-84.0,-100.0,-100.0,-100.0,-75.0,-100.0,-100.0,-100.0,-100.0,-100.0,-100.0,-100.0,-100.0,-100.0,-89.0,-100.0,-89.0,-100.0,-100.0,-100.0,-100.0,-100.0,-100.0,-100.0,-100.0,-100.0,-100.0,-100.0,-100.0,-100.0,-100.0,-100.0,-100.0,-100.0,-100.0,-100.0,-100.0,-100.0,-100.0,-100.0,-100.0,-100.0,-100.0,-100.0,-100.0,-100.0,-100.0,-100.0,-100.0,-100.0,-100.0,-100.0,-100.0,-100.0,-100.0,-100.0,-100.0,-100.0,-100.0,-100.0,-100.0,-100.0,-100.0,-100.0,-100.0,-100.0,-100.0,-100.0,-100.0,-100.0,-100.0,-100.0,-100.0,-100.0,-100.0,-100.0,-100.0,-100.0,-100.0,-100.0,-100.0,-100.0,-100.0,-100.0,-100.0,-100.0,-100.0,-100.0,-100.0
2021.01.30 155138,13.0,24.0,20.77210985321101,-37.86990773394495,-23.985687788990827,-5.456530317431194,8.288144651376147,-0.2391419256825688,-0.003985430526238533,0.0014799582666055041,-0.000559670304770642,-0.9879449310652707,1.6146259340671225,1.7465097488613304,1016.1721164220185,-68.0,-67.0,-100.0,-60.0,-68.0,-79.0,-58.0,-77.0,-100.0,-60.0,-61.0,-100.0,-61.0,-100.0,-100.0,-60.0,-68.0,-81.0,-100.0,-66.0,-67.0,-87.0,-50.0,-49.0,-60.0,-69.0,-62.0,-72.0,-58.0,-76.0,-100.0,-87.0,-46.0,-50.0,-56.0,-58.0,-58.0,-67.0,-80.0,-65.0,-66.0,-87.0,-50.0,-49.0,-62.0,-69.0,-62.0,-72.0,-57.0,-76.0,-100.0,-86.0,-46.0,-50.0,-56.0,-58.0,-59.0,-67.0,-100.0,-100.0,-100.0,-100.0,-80.0,-71.0,-80.0,-100.0,-88.0,-100.0,-78.0,-100.0,-90.0,-88.0,-100.0,-89.0,-100.0,-100.0,-89.0,-74.0,-100.0,-100.0,-100.0,-100.0,-100.0,-100.0,-90.0,-100.0,-100.0,-100.0,-100.0,-100.0,-100.0,-100.0,-100.0,-100.0,-100.0,-100.0,-100.0,-100.0,-100.0,-100.0,-100.0,-100.0,-100.0,-100.0,-100.0,-100.0,-100.0,-100.0,-100.0,-100.0,-100.0,-100.0,-100.0,-100.0,-100.0,-100.0,-100.0,-100.0,-100.0,-100.0,-100.0,-100.0,-100.0,-100.0,-100.0,-100.0,-100.0,-100.0,-100.0,-100.0,-100.0,-100.0,-100.0,-100.0,-100.0,-100.0,-100.0,-100.0,-100.0,-100.0,-100.0,-100.0,-100.0,-100.0,-100.0,-100.0,-100.0,-100.0,-100.0,-100.0,-100.0,-100.0,-100.0
2021.01.30 155148,14.0,24.0,18.85145428181818,-36.73799950909091,-24.537272409090907,-5.3476998427272715,8.355409654545454,-0.23783855274545457,-0.001022810551090909,0.00036557508827272695,0.0011198270340000002,-1.0009463743730025,1.6153159369121899,1.7628761811689897,1016.1787688181817,-66.0,-70.0,-100.0,-55.0,-64.0,-72.0,-57.0,-80.0,-100.0,-74.0,-49.0,-100.0,-60.0,-73.0,-100.0,-66.0,-73.0,-74.0,-67.0,-63.0,-64.0,-100.0,-41.0,-52.0,-50.0,-65.0,-60.0,-73.0,-61.0,-76.0,-100.0,-84.0,-47.0,-50.0,-57.0,-57.0,-59.0,-73.0,-75.0,-65.0,-64.0,-100.0,-45.0,-52.0,-51.0,-65.0,-61.0,-72.0,-60.0,-76.0,-100.0,-85.0,-48.0,-51.0,-56.0,-57.0,-59.0,-73.0,-100.0,-100.0,-100.0,-100.0,-83.0,-67.0,-83.0,-100.0,-100.0,-83.0,-77.0,-81.0,-100.0,-100.0,-100.0,-100.0,-100.0,-100.0,-91.0,-77.0,-100.0,-88.0,-100.0,-100.0,-100.0,-100.0,-86.0,-74.0,-88.0,-100.0,-100.0,-100.0,-100.0,-100.0,-100.0,-100.0,-100.0,-100.0,-100.0,-100.0,-100.0,-100.0,-100.0,-100.0,-100.0,-100.0,-100.0,-100.0,-100.0,-100.0,-100.0,-100.0,-100.0,-100.0,-100.0,-100.0,-100.0,-100.0,-100.0,-100.0,-100.0,-100.0,-100.0,-100.0,-100.0,-100.0,-100.0,-100.0,-100.0,-100.0,-100.0,-100.0,-100.0,-100.0,-100.0,-100.0,-100.0,-100.0,-100.0,-100.0,-100.0,-100.0,-100.0,-100.0,-100.0,-100.0,-100.0,-100.0,-100.0,-100.0,-100.0,-100.0,-100.0,-100.0,-100.0
2021.01.30 155158,15.0,24.0,16.88785694642857,-35.60517817857143,-26.793213937499996,-5.301287844642857,8.3846861875,-0.20967006430892857,0.00010223262455357103,-0.0038597084207142853,0.0012199851703571427,-1.006536012781518,1.6102752313017845,1.7756746038794518,1016.1750464285715,-100.0,-69.0,-100.0,-57.0,-66.0,-75.0,-54.0,-74.0,-100.0,-70.0,-62.0,-100.0,-59.0,-100.0,-100.0,-65.0,-76.0,-78.0,-65.0,-69.0,-63.0,-89.0,-49.0,-50.0,-54.0,-62.0,-62.0,-74.0,-62.0,-82.0,-100.0,-81.0,-50.0,-50.0,-57.0,-56.0,-56.0,-66.0,-80.0,-68.0,-63.0,-88.0,-49.0,-50.0,-51.0,-63.0,-64.0,-72.0,-62.0,-82.0,-100.0,-81.0,-50.0,-51.0,-56.0,-56.0,-56.0,-66.0,-100.0,-100.0,-100.0,-100.0,-82.0,-65.0,-82.0,-100.0,-100.0,-100.0,-72.0,-100.0,-100.0,-87.0,-100.0,-100.0,-100.0,-100.0,-90.0,-73.0,-100.0,-100.0,-100.0,-100.0,-100.0,-100.0,-85.0,-62.0,-100.0,-90.0,-100.0,-100.0,-100.0,-100.0,-100.0,-100.0,-100.0,-100.0,-100.0,-100.0,-100.0,-100.0,-100.0,-100.0,-100.0,-100.0,-100.0,-100.0,-100.0,-100.0,-100.0,-100.0,-100.0,-100.0,-100.0,-100.0,-100.0,-100.0,-100.0,-100.0,-100.0,-100.0,-100.0,-100.0,-100.0,-100.0,-100.0,-100.0,-100.0,-100.0,-100.0,-100.0,-100.0,-100.0,-100.0,-100.0,-100.0,-100.0,-100.0,-100.0,-100.0,-100.0,-100.0,-100.0,-100.0,-100.0,-100.0,-100.0,-100.0,-100.0,-100.0,-100.0,-100.0,-100.0,-100.0
2021.01.30 155217,17.0,24.0,17.83100895412844,-32.91137563302753,-26.31357759633027,-5.312632193577981,8.375876155963303,-0.10323937195412843,-0.0024666735623853214,-0.003675968419541285,0.003537049855229358,-1.0050742593380289,1.5904671456835686,1.6853613809708061,1016.1604505504589,-59.0,-74.0,-100.0,-57.0,-65.0,-100.0,-48.0,-71.0,-100.0,-66.0,-64.0,-100.0,-55.0,-100.0,-100.0,-100.0,-80.0,-74.0,-57.0,-67.0,-63.0,-89.0,-39.0,-42.0,-42.0,-62.0,-62.0,-66.0,-62.0,-81.0,-100.0,-81.0,-50.0,-49.0,-59.0,-57.0,-55.0,-66.0,-73.0,-67.0,-64.0,-88.0,-40.0,-42.0,-44.0,-62.0,-62.0,-67.0,-62.0,-82.0,-100.0,-81.0,-50.0,-49.0,-60.0,-57.0,-54.0,-66.0,-100.0,-100.0,-100.0,-86.0,-85.0,-58.0,-85.0,-100.0,-100.0,-100.0,-58.0,-100.0,-100.0,-87.0,-100.0,-100.0,-81.0,-100.0,-100.0,-66.0,-100.0,-86.0,-100.0,-100.0,-80.0,-100.0,-85.0,-100.0,-86.0,-89.0,-83.0,-100.0,-100.0,-100.0,-100.0,-100.0,-100.0,-100.0,-100.0,-100.0,-100.0,-100.0,-100.0,-100.0,-100.0,-100.0,-100.0,-100.0,-100.0,-100.0,-100.0,-100.0,-100.0,-100.0,-100.0,-100.0,-100.0,-100.0,-100.0,-100.0,-100.0,-100.0,-100.0,-100.0,-100.0,-100.0,-100.0,-100.0,-100.0,-100.0,-100.0,-100.0,-100.0,-100.0,-100.0,-100.0,-100.0,-100.0,-100.0,-100.0,-100.0,-100.0,-100.0,-100.0,-100.0,-100.0,-100.0,-100.0,-100.0,-100.0,-100.0,-100.0,-100.0,-100.0,-100.0
2021.01.30 155226,18.0,24.0,14.987026729729731,-34.14162118918919,-26.553513153153148,-5.362485318018017,8.34387513063063,-0.1798941612486487,0.0013416031597297306,-0.001301071412342343,0.0014372668436036032,-0.9991099866660865,1.604467873100762,1.812518751299059,1016.1574818018016,-66.0,-75.0,-100.0,-57.0,-67.0,-100.0,-50.0,-70.0,-100.0,-71.0,-73.0,-100.0,-48.0,-100.0,-100.0,-83.0,-78.0,-75.0,-56.0,-68.0,-57.0,-100.0,-36.0,-37.0,-45.0,-61.0,-100.0,-64.0,-64.0,-74.0,-100.0,-82.0,-51.0,-52.0,-53.0,-59.0,-57.0,-64.0,-74.0,-67.0,-57.0,-100.0,-37.0,-37.0,-45.0,-61.0,-65.0,-64.0,-64.0,-77.0,-100.0,-83.0,-51.0,-53.0,-53.0,-59.0,-57.0,-64.0,-100.0,-100.0,-100.0,-100.0,-82.0,-54.0,-83.0,-100.0,-100.0,-100.0,-72.0,-100.0,-100.0,-100.0,-100.0,-100.0,-100.0,-100.0,-100.0,-58.0,-100.0,-90.0,-100.0,-100.0,-80.0,-100.0,-88.0,-56.0,-100.0,-88.0,-100.0,-76.0,-100.0,-100.0,-100.0,-100.0,-100.0,-100.0,-100.0,-100.0,-100.0,-100.0,-100.0,-100.0,-100.0,-100.0,-100.0,-100.0,-100.0,-100.0,-100.0,-100.0,-100.0,-100.0,-100.0,-100.0,-100.0,-100.0,-100.0,-100.0,-100.0,-100.0,-100.0,-100.0,-100.0,-100.0,-100.0,-100.0,-100.0,-100.0,-100.0,-100.0,-100.0,-100.0,-100.0,-100.0,-100.0,-100.0,-100.0,-100.0,-100.0,-100.0,-100.0,-100.0,-100.0,-100.0,-100.0,-100.0,-100.0,-100.0,-100.0,-100.0,-100.0,-100.0,-100.0
2021.01.30 155237,19.0,24.0,15.558333064814816,-33.100555,-29.81833288888889,-5.451497697222222,8.290819403703702,-0.07009904534259259,-0.00543615765074074,-0.0039405106817592605,0.002667558165555556,-0.9888691212292071,1.583391496428737,1.7536170659241852,1016.1478107407407,-100.0,-100.0,-100.0,-62.0,-68.0,-80.0,-50.0,-74.0,-100.0,-71.0,-67.0,-100.0,-47.0,-100.0,-100.0,-74.0,-82.0,-79.0,-57.0,-66.0,-60.0,-89.0,-38.0,-32.0,-46.0,-64.0,-66.0,-63.0,-70.0,-81.0,-75.0,-82.0,-62.0,-53.0,-55.0,-54.0,-54.0,-65.0,-78.0,-66.0,-62.0,-89.0,-38.0,-32.0,-48.0,-64.0,-100.0,-63.0,-69.0,-81.0,-76.0,-81.0,-62.0,-53.0,-55.0,-54.0,-57.0,-65.0,-100.0,-100.0,-100.0,-86.0,-86.0,-59.0,-86.0,-100.0,-100.0,-100.0,-65.0,-100.0,-100.0,-84.0,-100.0,-100.0,-82.0,-100.0,-88.0,-63.0,-100.0,-100.0,-81.0,-100.0,-75.0,-100.0,-79.0,-56.0,-100.0,-86.0,-87.0,-84.0,-83.0,-100.0,-100.0,-100.0,-100.0,-100.0,-100.0,-100.0,-100.0,-100.0,-100.0,-100.0,-100.0,-100.0,-100.0,-100.0,-100.0,-100.0,-100.0,-100.0,-100.0,-100.0,-100.0,-100.0,-100.0,-100.0,-100.0,-100.0,-100.0,-100.0,-100.0,-100.0,-100.0,-100.0,-100.0,-100.0,-100.0,-100.0,-100.0,-100.0,-100.0,-100.0,-100.0,-100.0,-100.0,-100.0,-100.0,-100.0,-100.0,-100.0,-100.0,-100.0,-100.0,-100.0,-100.0,-100.0,-100.0,-100.0,-100.0,-100.0,-100.0,-100.0,-100.0
2021.01.30 155246,20.0,24.0,17.1117854375,-33.40982117857143,-33.387320946428574,-5.296648969642858,8.396657584821428,-0.034075660800000004,-0.00021410830937500014,-0.00017270026857142895,0.004896085008392856,-1.00765134287732,1.5773379941071783,1.6771047871027673,1016.1388558035713,-65.0,-79.0,-100.0,-62.0,-69.0,-100.0,-45.0,-77.0,-100.0,-68.0,-79.0,-100.0,-50.0,-100.0,-100.0,-80.0,-85.0,-75.0,-67.0,-65.0,-75.0,-100.0,-39.0,-29.0,-47.0,-62.0,-64.0,-67.0,-72.0,-85.0,-100.0,-81.0,-56.0,-55.0,-51.0,-56.0,-53.0,-71.0,-75.0,-61.0,-76.0,-100.0,-38.0,-28.0,-48.0,-63.0,-64.0,-67.0,-71.0,-85.0,-100.0,-81.0,-56.0,-55.0,-51.0,-56.0,-56.0,-71.0,-100.0,-86.0,-100.0,-86.0,-80.0,-68.0,-80.0,-100.0,-86.0,-64.0,-60.0,-100.0,-100.0,-81.0,-100.0,-100.0,-100.0,-100.0,-90.0,-60.0,-100.0,-85.0,-100.0,-82.0,-79.0,-100.0,-79.0,-61.0,-84.0,-86.0,-100.0,-100.0,-100.0,-100.0,-100.0,-100.0,-100.0,-100.0,-100.0,-100.0,-100.0,-100.0,-100.0,-100.0,-100.0,-100.0,-100.0,-100.0,-100.0,-100.0,-100.0,-100.0,-100.0,-100.0,-100.0,-100.0,-100.0,-100.0,-100.0,-100.0,-100.0,-100.0,-100.0,-100.0,-100.0,-100.0,-100.0,-100.0,-100.0,-100.0,-100.0,-100.0,-100.0,-100.0,-100.0,-100.0,-100.0,-100.0,-100.0,-100.0,-100.0,-100.0,-100.0,-100.0,-100.0,-100.0,-100.0,-100.0,-100.0,-100.0,-100.0,-100.0,-100.0,-100.0,-100.0
2021.01.30 155257,21.0,24.0,19.543683956140352,-35.58157839473684,-34.7657890877193,-5.129628755263158,8.496315114035088,0.11301397172456139,0.00016969200307017634,-0.0013243880121929822,0.004520992334561404,-1.0272055827734763,1.5489224686957241,1.6015221560210513,1016.134958245614,-62.0,-76.0,-100.0,-69.0,-75.0,-100.0,-59.0,-100.0,-100.0,-74.0,-73.0,-100.0,-48.0,-100.0,-86.0,-74.0,-84.0,-81.0,-62.0,-61.0,-60.0,-100.0,-23.0,-26.0,-49.0,-67.0,-66.0,-67.0,-64.0,-81.0,-71.0,-84.0,-54.0,-54.0,-56.0,-57.0,-58.0,-64.0,-75.0,-100.0,-67.0,-100.0,-23.0,-27.0,-48.0,-67.0,-100.0,-68.0,-63.0,-81.0,-71.0,-84.0,-53.0,-54.0,-56.0,-57.0,-57.0,-64.0,-100.0,-100.0,-100.0,-100.0,-75.0,-58.0,-75.0,-100.0,-89.0,-100.0,-59.0,-100.0,-90.0,-78.0,-100.0,-91.0,-76.0,-100.0,-100.0,-55.0,-79.0,-87.0,-100.0,-100.0,-72.0,-100.0,-78.0,-65.0,-88.0,-100.0,-100.0,-100.0,-100.0,-83.0,-88.0,-80.0,-100.0,-100.0,-100.0,-100.0,-100.0,-100.0,-100.0,-100.0,-100.0,-100.0,-100.0,-100.0,-100.0,-100.0,-100.0,-100.0,-100.0,-100.0,-100.0,-100.0,-100.0,-100.0,-100.0,-100.0,-100.0,-100.0,-100.0,-100.0,-100.0,-100.0,-100.0,-100.0,-100.0,-100.0,-100.0,-100.0,-100.0,-100.0,-100.0,-100.0,-100.0,-100.0,-100.0,-100.0,-100.0,-100.0,-100.0,-100.0,-100.0,-100.0,-100.0,-100.0,-100.0,-100.0,-100.0,-100.0,-100.0,-100.0,-100.0
2021.01.30 155306,22.0,24.0,18.837297135135135,-37.279458972972975,-35.37837799099099,-4.9803719990990984,8.57982991891892,0.02295052575135136,0.0037905673123423424,-0.006765838759819818,0.00478326763153153,-1.0446749163103533,1.5662651244584505,1.6368141797211793,1016.1488193693692,-60.0,-100.0,-100.0,-100.0,-77.0,-100.0,-52.0,-69.0,-77.0,-67.0,-100.0,-100.0,-43.0,-100.0,-100.0,-76.0,-83.0,-80.0,-63.0,-63.0,-71.0,-100.0,-30.0,-29.0,-46.0,-66.0,-68.0,-67.0,-69.0,-82.0,-72.0,-80.0,-54.0,-52.0,-55.0,-53.0,-59.0,-63.0,-100.0,-64.0,-71.0,-100.0,-29.0,-30.0,-46.0,-67.0,-68.0,-66.0,-68.0,-82.0,-72.0,-80.0,-54.0,-52.0,-55.0,-53.0,-59.0,-63.0,-100.0,-100.0,-100.0,-84.0,-81.0,-63.0,-81.0,-91.0,-89.0,-66.0,-62.0,-100.0,-87.0,-76.0,-100.0,-87.0,-100.0,-100.0,-100.0,-62.0,-100.0,-88.0,-100.0,-100.0,-72.0,-100.0,-75.0,-100.0,-88.0,-83.0,-78.0,-100.0,-100.0,-100.0,-100.0,-100.0,-100.0,-100.0,-100.0,-100.0,-100.0,-100.0,-100.0,-100.0,-100.0,-100.0,-100.0,-100.0,-100.0,-100.0,-100.0,-100.0,-100.0,-100.0,-100.0,-100.0,-100.0,-100.0,-100.0,-100.0,-100.0,-100.0,-100.0,-100.0,-100.0,-100.0,-100.0,-100.0,-100.0,-100.0,-100.0,-100.0,-100.0,-100.0,-100.0,-100.0,-100.0,-100.0,-100.0,-100.0,-100.0,-100.0,-100.0,-100.0,-100.0,-100.0,-100.0,-100.0,-100.0,-100.0,-100.0,-100.0,-100.0,-100.0,-100.0
2021.01.30 155316,23.0,24.0,22.72789447368421,-38.31526269298246,-34.30526278947368,-5.002690207894737,8.56621118859649,-0.019532242008771922,0.0006144446941228066,-0.0016941222596491231,0.00010561535947368416,-1.0420578895953663,1.5749019603980214,1.5667682175050701,1016.1553824561405,-61.0,-100.0,-100.0,-72.0,-78.0,-100.0,-62.0,-65.0,-100.0,-66.0,-80.0,-100.0,-47.0,-100.0,-100.0,-100.0,-86.0,-77.0,-63.0,-64.0,-74.0,-100.0,-32.0,-31.0,-45.0,-64.0,-66.0,-72.0,-67.0,-84.0,-100.0,-76.0,-52.0,-55.0,-51.0,-54.0,-59.0,-66.0,-79.0,-63.0,-74.0,-100.0,-32.0,-31.0,-45.0,-64.0,-66.0,-73.0,-67.0,-85.0,-100.0,-77.0,-51.0,-55.0,-51.0,-54.0,-58.0,-66.0,-100.0,-100.0,-100.0,-82.0,-74.0,-55.0,-74.0,-100.0,-100.0,-59.0,-63.0,-100.0,-89.0,-100.0,-100.0,-88.0,-78.0,-82.0,-100.0,-55.0,-100.0,-88.0,-100.0,-100.0,-70.0,-100.0,-71.0,-100.0,-87.0,-79.0,-100.0,-64.0,-100.0,-75.0,-80.0,-72.0,-91.0,-90.0,-100.0,-100.0,-100.0,-100.0,-100.0,-100.0,-100.0,-100.0,-100.0,-100.0,-100.0,-100.0,-100.0,-100.0,-100.0,-100.0,-100.0,-100.0,-100.0,-100.0,-100.0,-100.0,-100.0,-100.0,-100.0,-100.0,-100.0,-100.0,-100.0,-100.0,-100.0,-100.0,-100.0,-100.0,-100.0,-100.0,-100.0,-100.0,-100.0,-100.0,-100.0,-100.0,-100.0,-100.0,-100.0,-100.0,-100.0,-100.0,-100.0,-100.0,-100.0,-100.0,-100.0,-100.0,-100.0,-100.0,-100.0
2021.01.30 155326,24.0,24.0,21.18545428181818,-39.840544872727264,-32.88763594545455,-4.84951654090909,8.656500540909091,0.07265535801272727,0.0018482561714545458,-0.0017946666045454544,0.002896889641636365,-1.0599016536365855,1.5559341018850152,1.5895504420453852,1016.1526713636363,-100.0,-100.0,-100.0,-75.0,-85.0,-100.0,-61.0,-69.0,-100.0,-68.0,-81.0,-100.0,-52.0,-100.0,-100.0,-100.0,-89.0,-100.0,-64.0,-56.0,-67.0,-100.0,-35.0,-35.0,-100.0,-69.0,-67.0,-76.0,-70.0,-85.0,-70.0,-81.0,-54.0,-62.0,-56.0,-50.0,-58.0,-64.0,-76.0,-56.0,-75.0,-100.0,-35.0,-35.0,-100.0,-69.0,-67.0,-76.0,-70.0,-85.0,-71.0,-82.0,-57.0,-62.0,-57.0,-50.0,-58.0,-64.0,-100.0,-80.0,-89.0,-82.0,-75.0,-64.0,-76.0,-100.0,-86.0,-100.0,-64.0,-100.0,-88.0,-78.0,-100.0,-87.0,-80.0,-100.0,-100.0,-60.0,-73.0,-88.0,-73.0,-100.0,-64.0,-100.0,-72.0,-100.0,-87.0,-79.0,-100.0,-100.0,-100.0,-100.0,-100.0,-100.0,-100.0,-100.0,-83.0,-100.0,-100.0,-100.0,-100.0,-100.0,-100.0,-100.0,-100.0,-100.0,-100.0,-100.0,-100.0,-100.0,-100.0,-100.0,-100.0,-100.0,-100.0,-100.0,-100.0,-100.0,-100.0,-100.0,-100.0,-100.0,-100.0,-100.0,-100.0,-100.0,-100.0,-100.0,-100.0,-100.0,-100.0,-100.0,-100.0,-100.0,-100.0,-100.0,-100.0,-100.0,-100.0,-100.0,-100.0,-100.0,-100.0,-100.0,-100.0,-100.0,-100.0,-100.0,-100.0,-100.0,-100.0,-100.0,-100.0
2021.01.30 155335,25.0,24.0,18.72263135964912,-39.60105212280702,-33.85736802631578,-4.7771662982456125,8.692078631578946,0.030873543229824555,0.0025542097823684213,-0.00333381318254386,0.003417148123333333,-1.0680965728927077,1.564388794857159,1.6453107072595965,1016.1520774561403,-64.0,-77.0,-100.0,-59.0,-85.0,-100.0,-61.0,-66.0,-100.0,-64.0,-84.0,-100.0,-52.0,-100.0,-100.0,-100.0,-89.0,-100.0,-100.0,-51.0,-100.0,-100.0,-37.0,-42.0,-48.0,-74.0,-100.0,-70.0,-100.0,-84.0,-71.0,-79.0,-58.0,-61.0,-45.0,-49.0,-57.0,-63.0,-100.0,-51.0,-100.0,-100.0,-37.0,-42.0,-48.0,-74.0,-100.0,-70.0,-100.0,-83.0,-71.0,-79.0,-58.0,-61.0,-44.0,-49.0,-57.0,-63.0,-100.0,-100.0,-92.0,-100.0,-69.0,-62.0,-69.0,-100.0,-84.0,-100.0,-62.0,-77.0,-89.0,-74.0,-100.0,-88.0,-76.0,-100.0,-100.0,-63.0,-100.0,-86.0,-100.0,-100.0,-66.0,-100.0,-65.0,-100.0,-84.0,-77.0,-78.0,-100.0,-79.0,-100.0,-100.0,-74.0,-100.0,-100.0,-81.0,-90.0,-100.0,-100.0,-100.0,-100.0,-100.0,-100.0,-100.0,-100.0,-100.0,-100.0,-100.0,-100.0,-100.0,-100.0,-100.0,-100.0,-100.0,-100.0,-100.0,-100.0,-100.0,-100.0,-100.0,-100.0,-100.0,-100.0,-100.0,-100.0,-100.0,-100.0,-100.0,-100.0,-100.0,-100.0,-100.0,-100.0,-100.0,-100.0,-100.0,-100.0,-100.0,-100.0,-100.0,-100.0,-100.0,-100.0,-100.0,-100.0,-100.0,-100.0,-100.0,-100.0,-100.0,-100.0,-100.0
2021.01.30 155345,26.0,24.0,17.623090736363636,-37.20872670000001,-34.29818142727273,-4.831124143636364,8.662072727272728,0.019350093307272723,0.0032865660490909083,-0.003643922218,0.0016696057799999995,-1.0618558157574047,1.5668738332661716,1.6481419985944574,1016.1490350000003,-64.0,-100.0,-100.0,-71.0,-83.0,-100.0,-63.0,-61.0,-100.0,-61.0,-100.0,-100.0,-50.0,-100.0,-100.0,-100.0,-92.0,-73.0,-69.0,-53.0,-86.0,-100.0,-37.0,-51.0,-57.0,-71.0,-100.0,-72.0,-73.0,-89.0,-69.0,-78.0,-55.0,-63.0,-48.0,-51.0,-61.0,-64.0,-74.0,-54.0,-85.0,-100.0,-37.0,-51.0,-57.0,-71.0,-100.0,-72.0,-72.0,-89.0,-69.0,-78.0,-55.0,-63.0,-48.0,-52.0,-59.0,-64.0,-100.0,-79.0,-100.0,-86.0,-74.0,-69.0,-74.0,-87.0,-87.0,-100.0,-71.0,-78.0,-100.0,-74.0,-100.0,-90.0,-100.0,-100.0,-87.0,-73.0,-81.0,-85.0,-82.0,-100.0,-74.0,-100.0,-70.0,-74.0,-84.0,-75.0,-88.0,-100.0,-100.0,-75.0,-100.0,-100.0,-100.0,-100.0,-100.0,-100.0,-89.0,-88.0,-100.0,-100.0,-100.0,-100.0,-100.0,-100.0,-100.0,-100.0,-100.0,-100.0,-100.0,-100.0,-100.0,-100.0,-100.0,-100.0,-100.0,-100.0,-100.0,-100.0,-100.0,-100.0,-100.0,-100.0,-100.0,-100.0,-100.0,-100.0,-100.0,-100.0,-100.0,-100.0,-100.0,-100.0,-100.0,-100.0,-100.0,-100.0,-100.0,-100.0,-100.0,-100.0,-100.0,-100.0,-100.0,-100.0,-100.0,-100.0,-100.0,-100.0,-100.0,-100.0,-100.0
2021.01.30 155355,27.0,24.0,12.108318274336286,-37.80212350442478,-31.618937530973447,-4.885655455752212,8.630852203539822,-0.09772031296460176,0.0007876701085840715,-0.0020105089436283185,0.0027904918738053098,-1.0554128072958078,1.5906475697998452,1.83655029693536,1016.147681681416,-67.0,-100.0,-100.0,-69.0,-85.0,-100.0,-66.0,-61.0,-71.0,-57.0,-100.0,-100.0,-57.0,-100.0,-100.0,-81.0,-91.0,-100.0,-65.0,-53.0,-100.0,-100.0,-38.0,-47.0,-61.0,-69.0,-67.0,-73.0,-74.0,-83.0,-100.0,-80.0,-59.0,-60.0,-38.0,-49.0,-62.0,-57.0,-100.0,-54.0,-100.0,-100.0,-38.0,-48.0,-61.0,-69.0,-65.0,-73.0,-74.0,-84.0,-100.0,-80.0,-60.0,-60.0,-38.0,-50.0,-61.0,-57.0,-100.0,-100.0,-100.0,-83.0,-67.0,-65.0,-66.0,-100.0,-100.0,-100.0,-79.0,-81.0,-89.0,-68.0,-100.0,-88.0,-100.0,-87.0,-100.0,-70.0,-100.0,-90.0,-100.0,-100.0,-74.0,-100.0,-75.0,-76.0,-89.0,-71.0,-100.0,-100.0,-100.0,-65.0,-85.0,-100.0,-100.0,-100.0,-100.0,-100.0,-88.0,-91.0,-70.0,-84.0,-100.0,-100.0,-100.0,-100.0,-100.0,-100.0,-100.0,-100.0,-100.0,-100.0,-100.0,-100.0,-100.0,-100.0,-100.0,-100.0,-100.0,-100.0,-100.0,-100.0,-100.0,-100.0,-100.0,-100.0,-100.0,-100.0,-100.0,-100.0,-100.0,-100.0,-100.0,-100.0,-100.0,-100.0,-100.0,-100.0,-100.0,-100.0,-100.0,-100.0,-100.0,-100.0,-100.0,-100.0,-100.0,-100.0,-100.0,-100.0,-100.0,-100.0,-100.0
2021.01.30 155404,28.0,24.0,8.079831771428571,-33.522352411764714,-30.276806352941183,-4.715051416806722,8.719868411764706,0.014426007957983187,-0.0027028066116806717,-0.0010184150119327729,0.0016235926260504204,-1.0748427875903475,1.567881968842835,1.8530272776339234,1016.1507526050418,-100.0,-100.0,-100.0,-72.0,-88.0,-100.0,-65.0,-58.0,-100.0,-58.0,-100.0,-100.0,-100.0,-100.0,-100.0,-100.0,-91.0,-100.0,-100.0,-50.0,-80.0,-100.0,-40.0,-50.0,-61.0,-69.0,-100.0,-76.0,-100.0,-100.0,-69.0,-81.0,-61.0,-62.0,-39.0,-52.0,-63.0,-55.0,-100.0,-49.0,-100.0,-100.0,-40.0,-50.0,-61.0,-69.0,-100.0,-76.0,-100.0,-100.0,-69.0,-81.0,-61.0,-62.0,-39.0,-52.0,-64.0,-55.0,-100.0,-79.0,-100.0,-84.0,-72.0,-100.0,-72.0,-100.0,-100.0,-63.0,-100.0,-100.0,-89.0,-100.0,-100.0,-87.0,-100.0,-100.0,-100.0,-77.0,-100.0,-100.0,-69.0,-100.0,-77.0,-100.0,-77.0,-100.0,-100.0,-66.0,-100.0,-100.0,-100.0,-100.0,-100.0,-100.0,-100.0,-100.0,-100.0,-100.0,-100.0,-100.0,-74.0,-100.0,-88.0,-56.0,-77.0,-87.0,-88.0,-100.0,-100.0,-100.0,-100.0,-100.0,-100.0,-100.0,-100.0,-100.0,-100.0,-100.0,-100.0,-100.0,-100.0,-100.0,-100.0,-100.0,-100.0,-100.0,-100.0,-100.0,-100.0,-100.0,-100.0,-100.0,-100.0,-100.0,-100.0,-100.0,-100.0,-100.0,-100.0,-100.0,-100.0,-100.0,-100.0,-100.0,-100.0,-100.0,-100.0,-100.0,-100.0,-100.0,-100.0,-100.0,-100.0
2021.01.30 155414,29.0,24.0,10.875293965686277,-31.15058773529412,-30.743529009803925,-4.754959361764707,8.707015102941176,-0.05370687088235295,0.004672065201666668,-0.004247274187549019,0.006447203683137255,-1.0708179684246288,1.582231598741868,1.7539651218582601,1016.1508582352943,-100.0,-100.0,-100.0,-78.0,-87.0,-100.0,-70.0,-54.0,-100.0,-50.0,-100.0,-100.0,-56.0,-100.0,-100.0,-100.0,-90.0,-100.0,-64.0,-47.0,-74.0,-100.0,-42.0,-49.0,-56.0,-70.0,-68.0,-76.0,-100.0,-86.0,-100.0,-76.0,-59.0,-62.0,-40.0,-45.0,-63.0,-54.0,-71.0,-45.0,-100.0,-100.0,-42.0,-49.0,-56.0,-71.0,-66.0,-76.0,-100.0,-86.0,-100.0,-76.0,-58.0,-62.0,-40.0,-45.0,-63.0,-54.0,-100.0,-78.0,-100.0,-100.0,-70.0,-68.0,-70.0,-100.0,-85.0,-100.0,-74.0,-100.0,-90.0,-69.0,-100.0,-89.0,-70.0,-100.0,-100.0,-70.0,-75.0,-88.0,-74.0,-100.0,-76.0,-100.0,-76.0,-100.0,-90.0,-68.0,-82.0,-100.0,-70.0,-100.0,-85.0,-74.0,-100.0,-100.0,-100.0,-100.0,-88.0,-89.0,-100.0,-100.0,-100.0,-100.0,-100.0,-100.0,-100.0,-100.0,-100.0,-100.0,-100.0,-100.0,-100.0,-100.0,-100.0,-100.0,-100.0,-100.0,-100.0,-100.0,-100.0,-100.0,-100.0,-100.0,-100.0,-100.0,-100.0,-100.0,-100.0,-100.0,-100.0,-100.0,-100.0,-100.0,-100.0,-100.0,-100.0,-100.0,-100.0,-100.0,-100.0,-100.0,-100.0,-100.0,-100.0,-100.0,-100.0,-100.0,-100.0,-100.0,-100.0,-100.0,-100.0
2021.01.30 155424,30.0,24.0,11.239244985849055,-28.889433632075473,-32.15886750943397,-4.682569110377359,8.736912099056603,-0.012739348622641514,0.001653785038584905,-0.0038852297502830185,0.0013519139716981134,-1.0786028256956137,1.5733921629077983,1.6900667087087091,1016.1444905660373,-74.0,-100.0,-88.0,-100.0,-86.0,-100.0,-66.0,-56.0,-74.0,-57.0,-87.0,-100.0,-59.0,-100.0,-100.0,-100.0,-87.0,-75.0,-65.0,-48.0,-80.0,-100.0,-46.0,-52.0,-58.0,-70.0,-63.0,-70.0,-75.0,-88.0,-100.0,-75.0,-62.0,-61.0,-40.0,-47.0,-67.0,-58.0,-76.0,-49.0,-100.0,-100.0,-45.0,-52.0,-58.0,-70.0,-64.0,-71.0,-76.0,-88.0,-100.0,-75.0,-62.0,-61.0,-39.0,-47.0,-66.0,-58.0,-100.0,-100.0,-90.0,-81.0,-70.0,-65.0,-70.0,-100.0,-82.0,-100.0,-100.0,-72.0,-88.0,-65.0,-100.0,-88.0,-70.0,-84.0,-90.0,-77.0,-100.0,-88.0,-100.0,-100.0,-82.0,-100.0,-86.0,-100.0,-90.0,-76.0,-88.0,-100.0,-100.0,-76.0,-100.0,-100.0,-88.0,-89.0,-100.0,-100.0,-89.0,-91.0,-100.0,-100.0,-100.0,-100.0,-100.0,-100.0,-100.0,-88.0,-100.0,-100.0,-100.0,-100.0,-100.0,-100.0,-100.0,-100.0,-100.0,-100.0,-100.0,-100.0,-100.0,-100.0,-100.0,-100.0,-100.0,-100.0,-100.0,-100.0,-100.0,-100.0,-100.0,-100.0,-100.0,-100.0,-100.0,-100.0,-100.0,-100.0,-100.0,-100.0,-100.0,-100.0,-100.0,-100.0,-100.0,-100.0,-100.0,-100.0,-100.0,-100.0,-100.0,-100.0,-100.0
2021.01.30 155434,31.0,24.0,16.92717923076923,-29.80461494017094,-34.792307341880345,-4.755275336752137,8.70460096153846,0.060102437218803414,0.001141085728119658,-0.005445049213504275,0.0017921585157264952,-1.0705286060642993,1.558045455533215,1.5444243820304544,1016.1309481196581,-100.0,-100.0,-100.0,-80.0,-100.0,-100.0,-73.0,-54.0,-100.0,-50.0,-100.0,-100.0,-50.0,-100.0,-100.0,-100.0,-91.0,-100.0,-63.0,-52.0,-100.0,-100.0,-47.0,-48.0,-60.0,-72.0,-50.0,-74.0,-73.0,-87.0,-100.0,-77.0,-64.0,-57.0,-39.0,-40.0,-65.0,-60.0,-100.0,-52.0,-100.0,-100.0,-47.0,-48.0,-61.0,-72.0,-54.0,-74.0,-73.0,-88.0,-100.0,-77.0,-63.0,-57.0,-40.0,-40.0,-64.0,-60.0,-100.0,-77.0,-100.0,-82.0,-65.0,-100.0,-65.0,-100.0,-80.0,-63.0,-100.0,-100.0,-89.0,-100.0,-100.0,-89.0,-65.0,-100.0,-100.0,-74.0,-100.0,-100.0,-100.0,-100.0,-100.0,-100.0,-100.0,-100.0,-100.0,-73.0,-100.0,-100.0,-100.0,-75.0,-100.0,-100.0,-100.0,-92.0,-100.0,-100.0,-88.0,-87.0,-100.0,-100.0,-100.0,-100.0,-100.0,-100.0,-100.0,-100.0,-92.0,-100.0,-100.0,-100.0,-100.0,-100.0,-100.0,-100.0,-100.0,-100.0,-100.0,-100.0,-100.0,-100.0,-100.0,-100.0,-100.0,-100.0,-100.0,-100.0,-100.0,-100.0,-100.0,-100.0,-100.0,-100.0,-100.0,-100.0,-100.0,-100.0,-100.0,-100.0,-100.0,-100.0,-100.0,-100.0,-100.0,-100.0,-100.0,-100.0,-100.0,-100.0,-100.0,-100.0,-100.0
2021.01.30 155444,32.0,24.0,17.15504566055046,-32.83871521100917,-37.05302700917431,-4.521071795412843,8.822046036697248,0.13434297898899084,0.0013498328995412844,-0.007464453934678899,0.004400107407706424,-1.0967351252879571,1.5411725831687997,1.5377435596711044,1016.1271181651375,-75.0,-100.0,-100.0,-79.0,-92.0,-100.0,-74.0,-56.0,-100.0,-48.0,-100.0,-100.0,-59.0,-100.0,-100.0,-100.0,-100.0,-79.0,-62.0,-41.0,-82.0,-100.0,-48.0,-57.0,-59.0,-74.0,-63.0,-73.0,-100.0,-91.0,-67.0,-78.0,-62.0,-56.0,-29.0,-41.0,-60.0,-61.0,-79.0,-44.0,-82.0,-100.0,-48.0,-57.0,-59.0,-74.0,-63.0,-73.0,-100.0,-89.0,-73.0,-78.0,-62.0,-57.0,-28.0,-41.0,-59.0,-61.0,-100.0,-73.0,-100.0,-100.0,-67.0,-63.0,-67.0,-100.0,-87.0,-100.0,-82.0,-76.0,-87.0,-63.0,-100.0,-89.0,-64.0,-100.0,-87.0,-75.0,-72.0,-90.0,-72.0,-100.0,-100.0,-100.0,-89.0,-100.0,-90.0,-79.0,-83.0,-100.0,-100.0,-80.0,-100.0,-100.0,-100.0,-100.0,-100.0,-100.0,-89.0,-90.0,-100.0,-100.0,-100.0,-62.0,-100.0,-100.0,-100.0,-100.0,-100.0,-100.0,-100.0,-100.0,-100.0,-100.0,-100.0,-100.0,-100.0,-100.0,-100.0,-100.0,-100.0,-100.0,-100.0,-100.0,-100.0,-100.0,-100.0,-100.0,-100.0,-100.0,-100.0,-100.0,-100.0,-100.0,-100.0,-100.0,-100.0,-100.0,-100.0,-100.0,-100.0,-100.0,-100.0,-100.0,-100.0,-100.0,-100.0,-100.0,-100.0,-100.0,-100.0,-100.0,-100.0
2021.01.30 155454,33.0,24.0,21.43947342105263,-32.504209938596496,-38.71210464035089,-4.780379689473685,8.692372675438596,0.1347094612385965,0.0033794138183333325,-0.002653287825087719,0.0027419812036842102,-1.0675446934867323,1.5427463964412087,1.4656092022594653,1016.1158649122807,-100.0,-100.0,-100.0,-100.0,-88.0,-100.0,-70.0,-55.0,-100.0,-48.0,-100.0,-100.0,-64.0,-100.0,-100.0,-100.0,-89.0,-100.0,-60.0,-53.0,-100.0,-100.0,-54.0,-55.0,-63.0,-75.0,-61.0,-75.0,-100.0,-100.0,-100.0,-75.0,-60.0,-62.0,-27.0,-28.0,-59.0,-61.0,-100.0,-54.0,-84.0,-100.0,-53.0,-55.0,-63.0,-75.0,-62.0,-75.0,-100.0,-100.0,-100.0,-75.0,-59.0,-63.0,-26.0,-28.0,-57.0,-61.0,-100.0,-73.0,-89.0,-83.0,-61.0,-59.0,-61.0,-84.0,-78.0,-64.0,-82.0,-73.0,-90.0,-67.0,-100.0,-89.0,-62.0,-100.0,-100.0,-100.0,-100.0,-90.0,-100.0,-100.0,-100.0,-100.0,-100.0,-100.0,-91.0,-76.0,-100.0,-100.0,-100.0,-100.0,-100.0,-100.0,-87.0,-87.0,-100.0,-100.0,-83.0,-82.0,-100.0,-100.0,-100.0,-100.0,-100.0,-100.0,-100.0,-100.0,-88.0,-100.0,-100.0,-100.0,-100.0,-100.0,-100.0,-100.0,-100.0,-100.0,-100.0,-100.0,-100.0,-100.0,-100.0,-100.0,-100.0,-100.0,-100.0,-100.0,-100.0,-100.0,-100.0,-100.0,-100.0,-100.0,-100.0,-100.0,-100.0,-100.0,-100.0,-100.0,-100.0,-100.0,-100.0,-100.0,-100.0,-100.0,-100.0,-100.0,-100.0,-100.0,-100.0,-100.0,-100.0
2021.01.30 155504,34.0,24.0,24.432109743119263,-32.450091376146794,-39.221834330275236,-4.702179972477063,8.73009710091743,0.026974032620183483,0.0008790743591743122,-1.6381373577981695e-05,0.0015531387855045875,-1.0762590585498635,1.5652814053614206,1.4110511377317096,1016.1206026605504,-100.0,-85.0,-91.0,-79.0,-91.0,-100.0,-70.0,-52.0,-100.0,-50.0,-87.0,-100.0,-61.0,-100.0,-100.0,-100.0,-92.0,-100.0,-62.0,-49.0,-83.0,-100.0,-49.0,-56.0,-64.0,-74.0,-64.0,-73.0,-100.0,-90.0,-68.0,-70.0,-59.0,-64.0,-31.0,-30.0,-64.0,-59.0,-100.0,-48.0,-83.0,-100.0,-49.0,-56.0,-100.0,-74.0,-64.0,-73.0,-100.0,-89.0,-68.0,-70.0,-60.0,-63.0,-31.0,-30.0,-64.0,-59.0,-100.0,-67.0,-88.0,-100.0,-66.0,-64.0,-65.0,-86.0,-85.0,-100.0,-83.0,-100.0,-90.0,-59.0,-100.0,-91.0,-64.0,-83.0,-84.0,-100.0,-100.0,-87.0,-100.0,-100.0,-88.0,-100.0,-91.0,-100.0,-88.0,-78.0,-100.0,-100.0,-100.0,-82.0,-91.0,-83.0,-87.0,-100.0,-100.0,-100.0,-90.0,-89.0,-100.0,-100.0,-100.0,-100.0,-100.0,-83.0,-100.0,-100.0,-100.0,-100.0,-100.0,-100.0,-100.0,-100.0,-100.0,-100.0,-100.0,-100.0,-100.0,-100.0,-100.0,-100.0,-100.0,-100.0,-100.0,-100.0,-100.0,-100.0,-100.0,-100.0,-100.0,-100.0,-100.0,-100.0,-100.0,-100.0,-100.0,-100.0,-100.0,-100.0,-100.0,-100.0,-100.0,-100.0,-100.0,-100.0,-100.0,-100.0,-100.0,-100.0,-100.0,-100.0,-100.0
2021.01.30 155514,35.0,24.0,25.835134864864866,-29.22054016216217,-34.97945908108108,-4.605592537837838,8.782372554054053,0.11708219463423425,0.00192495186036036,-0.003172190204324325,0.0021802110803603603,-1.08746760600322,1.5454193858413008,1.285652308850675,1016.1183965765767,-100.0,-100.0,-100.0,-78.0,-88.0,-100.0,-68.0,-49.0,-100.0,-44.0,-100.0,-100.0,-100.0,-100.0,-100.0,-100.0,-100.0,-100.0,-65.0,-44.0,-100.0,-100.0,-54.0,-55.0,-64.0,-78.0,-100.0,-72.0,-74.0,-100.0,-63.0,-74.0,-63.0,-66.0,-32.0,-28.0,-59.0,-61.0,-73.0,-43.0,-100.0,-100.0,-54.0,-55.0,-64.0,-78.0,-100.0,-73.0,-74.0,-100.0,-63.0,-73.0,-63.0,-66.0,-32.0,-28.0,-57.0,-61.0,-100.0,-70.0,-100.0,-80.0,-68.0,-100.0,-68.0,-100.0,-81.0,-59.0,-100.0,-70.0,-88.0,-73.0,-100.0,-87.0,-62.0,-100.0,-100.0,-100.0,-100.0,-90.0,-100.0,-100.0,-100.0,-100.0,-100.0,-100.0,-89.0,-78.0,-100.0,-100.0,-100.0,-80.0,-100.0,-100.0,-100.0,-88.0,-100.0,-100.0,-89.0,-90.0,-66.0,-100.0,-100.0,-100.0,-100.0,-100.0,-100.0,-100.0,-91.0,-88.0,-100.0,-100.0,-100.0,-100.0,-100.0,-100.0,-100.0,-100.0,-100.0,-100.0,-100.0,-100.0,-100.0,-100.0,-100.0,-100.0,-100.0,-100.0,-100.0,-100.0,-100.0,-100.0,-100.0,-100.0,-100.0,-100.0,-100.0,-100.0,-100.0,-100.0,-100.0,-100.0,-100.0,-100.0,-100.0,-100.0,-100.0,-100.0,-100.0,-100.0,-100.0,-100.0,-100.0
2021.01.30 155524,36.0,24.0,24.718908700000004,-27.5569087,-27.6823633,-4.738596339090909,8.7122872,0.10780766516181818,0.004319483772636364,-0.003460662732181818,0.0004978552272727273,-1.07227670062672,1.5481657602570273,1.2485057700764048,1016.1245127272728,-77.0,-86.0,-100.0,-100.0,-89.0,-100.0,-73.0,-52.0,-100.0,-49.0,-100.0,-100.0,-100.0,-100.0,-100.0,-100.0,-100.0,-100.0,-68.0,-55.0,-85.0,-100.0,-100.0,-52.0,-64.0,-72.0,-61.0,-69.0,-76.0,-90.0,-64.0,-72.0,-63.0,-65.0,-32.0,-33.0,-59.0,-63.0,-100.0,-53.0,-84.0,-100.0,-100.0,-52.0,-65.0,-72.0,-62.0,-69.0,-100.0,-91.0,-63.0,-72.0,-62.0,-65.0,-33.0,-33.0,-56.0,-63.0,-100.0,-64.0,-89.0,-75.0,-69.0,-68.0,-69.0,-100.0,-78.0,-100.0,-100.0,-75.0,-86.0,-66.0,-100.0,-87.0,-67.0,-100.0,-100.0,-100.0,-74.0,-88.0,-74.0,-100.0,-100.0,-100.0,-100.0,-100.0,-88.0,-80.0,-86.0,-100.0,-100.0,-79.0,-100.0,-84.0,-100.0,-84.0,-100.0,-100.0,-91.0,-89.0,-100.0,-100.0,-100.0,-100.0,-85.0,-100.0,-100.0,-100.0,-81.0,-100.0,-100.0,-100.0,-100.0,-100.0,-100.0,-100.0,-100.0,-100.0,-100.0,-100.0,-100.0,-100.0,-100.0,-100.0,-100.0,-100.0,-100.0,-100.0,-100.0,-100.0,-100.0,-100.0,-100.0,-100.0,-100.0,-100.0,-100.0,-100.0,-100.0,-100.0,-100.0,-100.0,-100.0,-100.0,-100.0,-100.0,-100.0,-100.0,-100.0,-100.0,-100.0,-100.0,-100.0
2021.01.30 155534,37.0,24.0,22.870269981981977,-27.245405126126126,-20.524324099099093,-4.812470783783784,8.671761391891891,0.09656908449009012,0.00344385997963964,-0.005070825345045044,0.0036110665400000005,-1.0636927737846031,1.5510278618013538,1.2316406396058228,1016.1089327927926,-100.0,-83.0,-100.0,-77.0,-100.0,-100.0,-71.0,-63.0,-100.0,-55.0,-100.0,-100.0,-68.0,-100.0,-100.0,-100.0,-92.0,-70.0,-100.0,-49.0,-84.0,-100.0,-54.0,-60.0,-100.0,-78.0,-100.0,-68.0,-100.0,-89.0,-59.0,-66.0,-59.0,-58.0,-35.0,-33.0,-58.0,-64.0,-100.0,-50.0,-100.0,-100.0,-54.0,-61.0,-100.0,-78.0,-100.0,-68.0,-100.0,-89.0,-59.0,-66.0,-59.0,-58.0,-36.0,-34.0,-58.0,-64.0,-100.0,-65.0,-100.0,-77.0,-66.0,-100.0,-66.0,-87.0,-81.0,-100.0,-100.0,-100.0,-87.0,-64.0,-100.0,-86.0,-70.0,-100.0,-100.0,-100.0,-73.0,-100.0,-74.0,-100.0,-100.0,-100.0,-100.0,-100.0,-100.0,-80.0,-100.0,-100.0,-100.0,-100.0,-100.0,-87.0,-76.0,-84.0,-100.0,-100.0,-85.0,-84.0,-62.0,-100.0,-100.0,-100.0,-100.0,-100.0,-100.0,-86.0,-85.0,-76.0,-86.0,-100.0,-100.0,-100.0,-100.0,-100.0,-100.0,-100.0,-100.0,-100.0,-100.0,-100.0,-100.0,-100.0,-100.0,-100.0,-100.0,-100.0,-100.0,-100.0,-100.0,-100.0,-100.0,-100.0,-100.0,-100.0,-100.0,-100.0,-100.0,-100.0,-100.0,-100.0,-100.0,-100.0,-100.0,-100.0,-100.0,-100.0,-100.0,-100.0,-100.0,-100.0,-100.0
2021.01.30 155553,39.0,24.0,18.44419329032258,-23.841773983870965,-18.99241916129032,-4.73158902983871,8.71774762096774,0.13817282599677425,0.0019029831959677412,-0.005323532993709678,0.0020289593240322575,-1.0730736371009582,1.541640934444243,1.292654397026185,1016.097536532258,-81.0,-100.0,-100.0,-100.0,-100.0,-100.0,-73.0,-64.0,-100.0,-62.0,-100.0,-100.0,-100.0,-100.0,-100.0,-100.0,-92.0,-72.0,-79.0,-52.0,-100.0,-100.0,-52.0,-63.0,-100.0,-80.0,-57.0,-70.0,-73.0,-100.0,-59.0,-65.0,-57.0,-58.0,-43.0,-46.0,-58.0,-55.0,-71.0,-53.0,-100.0,-100.0,-49.0,-63.0,-100.0,-81.0,-62.0,-70.0,-73.0,-100.0,-59.0,-65.0,-56.0,-58.0,-44.0,-45.0,-61.0,-55.0,-100.0,-57.0,-90.0,-68.0,-67.0,-100.0,-67.0,-84.0,-79.0,-100.0,-100.0,-74.0,-84.0,-60.0,-100.0,-86.0,-79.0,-100.0,-74.0,-100.0,-100.0,-100.0,-71.0,-100.0,-100.0,-100.0,-100.0,-100.0,-100.0,-78.0,-100.0,-100.0,-100.0,-100.0,-100.0,-100.0,-100.0,-87.0,-100.0,-100.0,-85.0,-86.0,-59.0,-100.0,-100.0,-73.0,-100.0,-80.0,-100.0,-100.0,-83.0,-77.0,-100.0,-100.0,-100.0,-100.0,-100.0,-100.0,-100.0,-100.0,-100.0,-100.0,-100.0,-100.0,-100.0,-100.0,-100.0,-100.0,-100.0,-100.0,-100.0,-100.0,-100.0,-100.0,-100.0,-100.0,-100.0,-100.0,-100.0,-100.0,-100.0,-100.0,-100.0,-100.0,-100.0,-100.0,-100.0,-100.0,-100.0,-100.0,-100.0,-100.0,-100.0,-100.0,-100.0
2021.01.30 155604,40.0,24.0,15.547118423728815,-28.19186411864407,-18.692542161016952,-5.270204671186442,8.413846885593221,0.04825072436949152,-0.00475483015101695,-0.0014657970201694913,0.005222224916271187,-1.0110053187709744,1.5616386037761882,1.661873426477788,1016.0985366949153,-100.0,-100.0,-100.0,-77.0,-100.0,-100.0,-100.0,-73.0,-62.0,-66.0,-100.0,-100.0,-73.0,-100.0,-100.0,-100.0,-91.0,-76.0,-74.0,-53.0,-100.0,-100.0,-53.0,-59.0,-76.0,-85.0,-62.0,-70.0,-75.0,-89.0,-56.0,-65.0,-100.0,-66.0,-48.0,-43.0,-65.0,-66.0,-100.0,-51.0,-100.0,-100.0,-51.0,-59.0,-77.0,-84.0,-62.0,-70.0,-74.0,-88.0,-53.0,-65.0,-100.0,-66.0,-48.0,-43.0,-66.0,-66.0,-100.0,-53.0,-88.0,-72.0,-72.0,-73.0,-73.0,-100.0,-81.0,-100.0,-91.0,-67.0,-83.0,-64.0,-100.0,-82.0,-70.0,-100.0,-76.0,-100.0,-100.0,-100.0,-100.0,-100.0,-100.0,-100.0,-89.0,-100.0,-100.0,-84.0,-100.0,-100.0,-100.0,-100.0,-100.0,-87.0,-79.0,-85.0,-100.0,-100.0,-86.0,-85.0,-57.0,-100.0,-100.0,-72.0,-90.0,-84.0,-100.0,-100.0,-83.0,-78.0,-85.0,-90.0,-89.0,-89.0,-90.0,-100.0,-100.0,-100.0,-100.0,-100.0,-100.0,-100.0,-100.0,-100.0,-100.0,-100.0,-100.0,-100.0,-100.0,-100.0,-100.0,-100.0,-100.0,-100.0,-100.0,-100.0,-100.0,-100.0,-100.0,-100.0,-100.0,-100.0,-100.0,-100.0,-100.0,-100.0,-100.0,-100.0,-100.0,-100.0,-100.0,-100.0,-100.0
2021.01.30 155614,41.0,24.0,9.433928385714285,-30.428035285714287,-21.38732111607143,-5.279760728571428,8.401702674107144,-0.018213591694642855,-0.0016485508382142852,-0.001552601267857143,0.0038925205980357147,-1.0094586259552412,1.5743478376950537,1.9413316015686308,1016.1156529464286,-100.0,-100.0,-100.0,-100.0,-100.0,-100.0,-72.0,-72.0,-100.0,-65.0,-100.0,-100.0,-100.0,-100.0,-100.0,-100.0,-100.0,-64.0,-79.0,-59.0,-100.0,-100.0,-53.0,-56.0,-70.0,-80.0,-53.0,-70.0,-100.0,-88.0,-58.0,-62.0,-60.0,-67.0,-51.0,-54.0,-58.0,-59.0,-71.0,-60.0,-100.0,-100.0,-51.0,-56.0,-70.0,-80.0,-55.0,-70.0,-100.0,-88.0,-58.0,-61.0,-60.0,-67.0,-50.0,-55.0,-59.0,-59.0,-100.0,-60.0,-89.0,-69.0,-69.0,-75.0,-69.0,-83.0,-75.0,-82.0,-100.0,-65.0,-84.0,-59.0,-100.0,-85.0,-75.0,-100.0,-100.0,-100.0,-66.0,-100.0,-67.0,-100.0,-100.0,-100.0,-90.0,-86.0,-100.0,-100.0,-100.0,-100.0,-100.0,-100.0,-100.0,-100.0,-100.0,-83.0,-100.0,-100.0,-86.0,-86.0,-62.0,-100.0,-100.0,-100.0,-100.0,-100.0,-100.0,-100.0,-81.0,-100.0,-100.0,-100.0,-87.0,-100.0,-89.0,-88.0,-100.0,-100.0,-100.0,-100.0,-100.0,-100.0,-100.0,-100.0,-100.0,-100.0,-100.0,-100.0,-100.0,-100.0,-100.0,-100.0,-100.0,-100.0,-100.0,-100.0,-100.0,-100.0,-100.0,-100.0,-100.0,-100.0,-100.0,-100.0,-100.0,-100.0,-100.0,-100.0,-100.0,-100.0,-100.0,-100.0,-100.0
2021.01.30 155624,42.0,24.0,8.757391128695653,-29.99791263478261,-24.98034747826087,-5.0625171173913035,8.536464126086955,0.19920366499478265,0.0034135681083478256,-0.0027377652342608695,0.0021471915493913047,-1.0348691204319829,1.5315202028855033,1.8474155374195265,1016.1185105217392,-100.0,-100.0,-100.0,-81.0,-100.0,-100.0,-76.0,-74.0,-100.0,-67.0,-100.0,-100.0,-59.0,-100.0,-100.0,-100.0,-90.0,-73.0,-100.0,-56.0,-100.0,-100.0,-56.0,-62.0,-73.0,-78.0,-59.0,-67.0,-100.0,-90.0,-54.0,-63.0,-62.0,-66.0,-49.0,-52.0,-57.0,-57.0,-73.0,-54.0,-85.0,-100.0,-54.0,-63.0,-72.0,-78.0,-58.0,-67.0,-100.0,-90.0,-53.0,-63.0,-62.0,-67.0,-51.0,-52.0,-57.0,-57.0,-100.0,-49.0,-86.0,-70.0,-68.0,-100.0,-68.0,-100.0,-100.0,-100.0,-100.0,-62.0,-86.0,-63.0,-100.0,-86.0,-79.0,-100.0,-76.0,-100.0,-100.0,-100.0,-100.0,-100.0,-100.0,-100.0,-100.0,-100.0,-100.0,-89.0,-100.0,-100.0,-100.0,-100.0,-100.0,-100.0,-100.0,-84.0,-100.0,-100.0,-90.0,-100.0,-64.0,-68.0,-100.0,-100.0,-100.0,-87.0,-100.0,-80.0,-81.0,-88.0,-81.0,-100.0,-88.0,-100.0,-88.0,-89.0,-83.0,-90.0,-100.0,-100.0,-100.0,-100.0,-100.0,-100.0,-100.0,-100.0,-100.0,-100.0,-100.0,-100.0,-100.0,-100.0,-100.0,-100.0,-100.0,-100.0,-100.0,-100.0,-100.0,-100.0,-100.0,-100.0,-100.0,-100.0,-100.0,-100.0,-100.0,-100.0,-100.0,-100.0,-100.0,-100.0,-100.0
2021.01.30 155634,43.0,24.0,10.81729702792793,-30.922702252252257,-26.697296945945947,-4.941114506306307,8.602996144144145,0.16322051783963964,0.0009233529612612609,-0.005791756404774775,0.002444368935315315,-1.0489943467818938,1.537826234155947,1.7700174885827142,1016.1225754054053,-100.0,-100.0,-100.0,-100.0,-100.0,-100.0,-100.0,-100.0,-61.0,-71.0,-100.0,-100.0,-100.0,-100.0,-100.0,-100.0,-100.0,-68.0,-74.0,-54.0,-100.0,-100.0,-59.0,-57.0,-100.0,-84.0,-57.0,-67.0,-100.0,-88.0,-58.0,-63.0,-59.0,-66.0,-48.0,-52.0,-58.0,-58.0,-68.0,-58.0,-100.0,-100.0,-59.0,-57.0,-72.0,-84.0,-55.0,-67.0,-100.0,-88.0,-57.0,-63.0,-60.0,-66.0,-49.0,-52.0,-57.0,-58.0,-100.0,-52.0,-88.0,-68.0,-68.0,-74.0,-69.0,-100.0,-71.0,-100.0,-100.0,-62.0,-86.0,-66.0,-100.0,-86.0,-81.0,-100.0,-68.0,-100.0,-100.0,-100.0,-71.0,-100.0,-100.0,-100.0,-100.0,-100.0,-100.0,-100.0,-100.0,-100.0,-100.0,-100.0,-100.0,-100.0,-77.0,-83.0,-100.0,-100.0,-100.0,-100.0,-67.0,-100.0,-100.0,-81.0,-100.0,-71.0,-100.0,-77.0,-74.0,-100.0,-78.0,-100.0,-87.0,-100.0,-86.0,-88.0,-82.0,-100.0,-88.0,-80.0,-80.0,-100.0,-100.0,-100.0,-100.0,-100.0,-100.0,-100.0,-100.0,-100.0,-100.0,-100.0,-100.0,-100.0,-100.0,-100.0,-100.0,-100.0,-100.0,-100.0,-100.0,-100.0,-100.0,-100.0,-100.0,-100.0,-100.0,-100.0,-100.0,-100.0,-100.0,-100.0,-100.0
2021.01.30 155644,44.0,24.0,10.195861874999999,-29.432068534482756,-26.352930612068967,-5.071528137068966,8.532761939655172,0.09211765972758619,0.003052177633448277,-0.005374834887758621,0.004195696365517241,-1.0342256144202988,1.5527036364736229,1.7925057400917184,1016.1219325862069,-100.0,-100.0,-100.0,-81.0,-100.0,-100.0,-80.0,-80.0,-56.0,-69.0,-100.0,-100.0,-100.0,-100.0,-100.0,-100.0,-100.0,-63.0,-79.0,-58.0,-88.0,-100.0,-56.0,-61.0,-69.0,-81.0,-59.0,-67.0,-78.0,-89.0,-47.0,-48.0,-60.0,-64.0,-57.0,-55.0,-58.0,-55.0,-63.0,-55.0,-100.0,-100.0,-62.0,-61.0,-69.0,-81.0,-59.0,-67.0,-78.0,-88.0,-47.0,-49.0,-60.0,-64.0,-57.0,-54.0,-57.0,-55.0,-100.0,-67.0,-88.0,-67.0,-71.0,-76.0,-71.0,-100.0,-68.0,-100.0,-100.0,-65.0,-80.0,-100.0,-100.0,-81.0,-100.0,-100.0,-62.0,-100.0,-70.0,-100.0,-70.0,-100.0,-100.0,-100.0,-100.0,-100.0,-100.0,-90.0,-100.0,-100.0,-100.0,-100.0,-100.0,-100.0,-100.0,-76.0,-100.0,-100.0,-90.0,-91.0,-64.0,-59.0,-100.0,-100.0,-100.0,-78.0,-100.0,-100.0,-82.0,-89.0,-100.0,-100.0,-85.0,-100.0,-85.0,-90.0,-89.0,-100.0,-100.0,-100.0,-100.0,-100.0,-100.0,-100.0,-100.0,-100.0,-100.0,-100.0,-100.0,-100.0,-100.0,-100.0,-100.0,-100.0,-100.0,-100.0,-100.0,-100.0,-100.0,-100.0,-100.0,-100.0,-100.0,-100.0,-100.0,-100.0,-100.0,-100.0,-100.0,-100.0,-100.0,-100.0,-100.0
2021.01.30 155654,45.0,24.0,10.07384592905983,-29.805640581196577,-27.70717914529914,-5.0692732179487185,8.52975747863248,0.23508913664957265,-0.0015059968501709403,-0.0012786349641025637,0.0018600326632478635,-1.0338371212665851,1.524765728885292,1.771198206477695,1016.1126327350428,-100.0,-100.0,-100.0,-100.0,-100.0,-100.0,-80.0,-73.0,-56.0,-71.0,-100.0,-100.0,-100.0,-100.0,-100.0,-100.0,-100.0,-65.0,-81.0,-56.0,-100.0,-100.0,-58.0,-60.0,-100.0,-82.0,-56.0,-68.0,-100.0,-100.0,-47.0,-50.0,-59.0,-61.0,-57.0,-53.0,-56.0,-59.0,-100.0,-56.0,-100.0,-100.0,-54.0,-60.0,-100.0,-82.0,-55.0,-68.0,-100.0,-100.0,-48.0,-50.0,-58.0,-61.0,-58.0,-53.0,-57.0,-59.0,-100.0,-61.0,-87.0,-70.0,-75.0,-82.0,-75.0,-85.0,-71.0,-100.0,-100.0,-59.0,-80.0,-100.0,-100.0,-81.0,-100.0,-100.0,-69.0,-100.0,-100.0,-100.0,-100.0,-100.0,-100.0,-100.0,-100.0,-100.0,-100.0,-90.0,-100.0,-100.0,-100.0,-100.0,-100.0,-100.0,-100.0,-74.0,-100.0,-100.0,-100.0,-100.0,-68.0,-100.0,-100.0,-100.0,-100.0,-72.0,-100.0,-75.0,-80.0,-100.0,-75.0,-100.0,-83.0,-100.0,-82.0,-100.0,-77.0,-100.0,-79.0,-100.0,-100.0,-100.0,-100.0,-100.0,-100.0,-100.0,-100.0,-100.0,-100.0,-100.0,-100.0,-100.0,-100.0,-100.0,-100.0,-100.0,-100.0,-100.0,-100.0,-100.0,-100.0,-100.0,-100.0,-100.0,-100.0,-100.0,-100.0,-100.0,-100.0,-100.0,-100.0,-100.0,-100.0
2021.01.30 155704,46.0,24.0,9.908852253278688,-32.48606510655738,-28.0559012704918,-5.251606291803278,8.417190840163933,0.1760576995819672,0.0010833543344262284,-0.0028697346420491804,0.0028732199349180334,-1.0124121748033117,1.5372823193425038,1.8541527302538763,1016.1055492622952,-100.0,-100.0,-100.0,-100.0,-100.0,-100.0,-81.0,-75.0,-57.0,-71.0,-100.0,-100.0,-100.0,-100.0,-100.0,-100.0,-100.0,-100.0,-100.0,-64.0,-100.0,-100.0,-100.0,-64.0,-100.0,-87.0,-58.0,-63.0,-100.0,-100.0,-44.0,-45.0,-59.0,-67.0,-54.0,-57.0,-59.0,-54.0,-100.0,-64.0,-100.0,-100.0,-100.0,-65.0,-100.0,-86.0,-59.0,-64.0,-100.0,-100.0,-45.0,-45.0,-58.0,-66.0,-54.0,-57.0,-59.0,-54.0,-100.0,-58.0,-86.0,-62.0,-78.0,-100.0,-78.0,-100.0,-71.0,-100.0,-100.0,-56.0,-81.0,-81.0,-100.0,-82.0,-100.0,-100.0,-53.0,-100.0,-71.0,-100.0,-100.0,-100.0,-100.0,-100.0,-100.0,-100.0,-100.0,-100.0,-100.0,-100.0,-100.0,-100.0,-100.0,-100.0,-100.0,-75.0,-100.0,-100.0,-100.0,-100.0,-100.0,-62.0,-100.0,-100.0,-100.0,-71.0,-100.0,-77.0,-78.0,-100.0,-100.0,-100.0,-85.0,-100.0,-86.0,-87.0,-100.0,-100.0,-100.0,-100.0,-100.0,-91.0,-100.0,-100.0,-100.0,-100.0,-100.0,-100.0,-100.0,-100.0,-100.0,-100.0,-100.0,-100.0,-100.0,-100.0,-100.0,-100.0,-100.0,-100.0,-100.0,-100.0,-100.0,-100.0,-100.0,-100.0,-100.0,-100.0,-100.0,-100.0,-100.0,-100.0,-100.0
2021.01.30 155714,47.0,24.0,5.779816451376148,-32.37577939449541,-31.001834458715596,-5.148657309174313,8.478610426605506,0.37256233840183484,-0.007163050683027524,-5.5611161100917274e-05,0.004596256683853211,-1.0235883374826624,1.4986485220970365,1.8887999232755888,1016.1057750458713,-100.0,-100.0,-100.0,-100.0,-100.0,-100.0,-83.0,-79.0,-52.0,-100.0,-100.0,-100.0,-100.0,-100.0,-100.0,-86.0,-100.0,-71.0,-100.0,-58.0,-100.0,-100.0,-100.0,-63.0,-100.0,-85.0,-62.0,-62.0,-100.0,-100.0,-45.0,-46.0,-56.0,-63.0,-58.0,-53.0,-52.0,-60.0,-100.0,-58.0,-100.0,-100.0,-57.0,-63.0,-100.0,-86.0,-64.0,-62.0,-100.0,-89.0,-45.0,-46.0,-56.0,-64.0,-56.0,-54.0,-52.0,-60.0,-100.0,-58.0,-86.0,-66.0,-72.0,-100.0,-72.0,-100.0,-68.0,-100.0,-100.0,-59.0,-80.0,-83.0,-100.0,-81.0,-100.0,-71.0,-62.0,-100.0,-100.0,-100.0,-100.0,-100.0,-100.0,-100.0,-100.0,-100.0,-100.0,-100.0,-100.0,-100.0,-100.0,-100.0,-100.0,-100.0,-100.0,-76.0,-100.0,-100.0,-100.0,-100.0,-100.0,-59.0,-100.0,-79.0,-100.0,-73.0,-100.0,-69.0,-84.0,-100.0,-70.0,-100.0,-79.0,-100.0,-78.0,-81.0,-100.0,-100.0,-78.0,-100.0,-100.0,-100.0,-91.0,-87.0,-79.0,-100.0,-100.0,-100.0,-100.0,-100.0,-100.0,-100.0,-100.0,-100.0,-100.0,-100.0,-100.0,-100.0,-100.0,-100.0,-100.0,-100.0,-100.0,-100.0,-100.0,-100.0,-100.0,-100.0,-100.0,-100.0,-100.0,-100.0,-100.0
2021.01.30 155724,48.0,24.0,4.230535658928572,-28.44267819642857,-31.516606660714285,-5.188265257142858,8.465044089285714,0.40215265884107143,0.0007240060977678571,-0.004470573668482142,0.0025453445885714296,-1.018845514527389,1.4936031390513693,1.860494573201452,1016.1170640178572,-100.0,-100.0,-100.0,-83.0,-100.0,-100.0,-100.0,-77.0,-53.0,-76.0,-100.0,-100.0,-100.0,-100.0,-100.0,-100.0,-100.0,-100.0,-100.0,-100.0,-100.0,-100.0,-52.0,-61.0,-74.0,-89.0,-62.0,-60.0,-100.0,-100.0,-46.0,-43.0,-59.0,-63.0,-59.0,-56.0,-51.0,-54.0,-62.0,-100.0,-100.0,-100.0,-53.0,-62.0,-74.0,-88.0,-62.0,-60.0,-63.0,-100.0,-46.0,-43.0,-59.0,-63.0,-59.0,-56.0,-52.0,-54.0,-100.0,-59.0,-85.0,-64.0,-76.0,-100.0,-76.0,-83.0,-63.0,-100.0,-100.0,-53.0,-76.0,-100.0,-100.0,-76.0,-100.0,-100.0,-100.0,-100.0,-100.0,-100.0,-100.0,-100.0,-100.0,-100.0,-100.0,-100.0,-100.0,-90.0,-100.0,-100.0,-100.0,-100.0,-100.0,-100.0,-71.0,-70.0,-100.0,-100.0,-100.0,-100.0,-100.0,-57.0,-100.0,-100.0,-100.0,-69.0,-100.0,-100.0,-84.0,-100.0,-100.0,-100.0,-77.0,-100.0,-76.0,-78.0,-100.0,-100.0,-100.0,-72.0,-71.0,-100.0,-100.0,-89.0,-77.0,-100.0,-100.0,-100.0,-100.0,-100.0,-100.0,-100.0,-100.0,-100.0,-100.0,-100.0,-100.0,-100.0,-100.0,-100.0,-100.0,-100.0,-100.0,-100.0,-100.0,-100.0,-100.0,-100.0,-100.0,-100.0,-100.0,-100.0,-100.0
2021.01.30 155734,49.0,24.0,6.410973315044247,-23.36761038938053,-33.53840656637168,-4.990283190265487,8.570063004424778,0.5276091757876106,0.0037068491653097346,-0.006973113302300884,0.005720482637168141,-1.0408564774336013,1.4658504608458123,1.6718987785609423,1016.1374653097346,-100.0,-100.0,-100.0,-100.0,-100.0,-100.0,-100.0,-100.0,-55.0,-81.0,-100.0,-100.0,-100.0,-100.0,-100.0,-91.0,-100.0,-64.0,-100.0,-64.0,-100.0,-100.0,-100.0,-63.0,-100.0,-87.0,-60.0,-61.0,-100.0,-100.0,-46.0,-47.0,-59.0,-66.0,-57.0,-52.0,-50.0,-51.0,-65.0,-66.0,-100.0,-100.0,-100.0,-63.0,-100.0,-87.0,-60.0,-61.0,-100.0,-100.0,-45.0,-47.0,-60.0,-66.0,-57.0,-52.0,-52.0,-51.0,-100.0,-64.0,-85.0,-63.0,-77.0,-100.0,-77.0,-100.0,-62.0,-100.0,-100.0,-50.0,-80.0,-79.0,-100.0,-79.0,-100.0,-73.0,-56.0,-100.0,-74.0,-100.0,-72.0,-100.0,-100.0,-100.0,-100.0,-100.0,-100.0,-100.0,-100.0,-100.0,-100.0,-100.0,-100.0,-100.0,-100.0,-68.0,-100.0,-100.0,-100.0,-100.0,-100.0,-100.0,-100.0,-100.0,-100.0,-68.0,-100.0,-71.0,-88.0,-100.0,-69.0,-100.0,-76.0,-100.0,-76.0,-80.0,-100.0,-100.0,-84.0,-100.0,-100.0,-100.0,-100.0,-89.0,-74.0,-100.0,-100.0,-100.0,-100.0,-100.0,-100.0,-100.0,-100.0,-100.0,-100.0,-100.0,-100.0,-100.0,-100.0,-100.0,-100.0,-100.0,-100.0,-100.0,-100.0,-100.0,-100.0,-100.0,-100.0,-100.0,-100.0,-100.0,-100.0
2021.01.30 155744,50.0,24.0,9.274285452678571,-22.174285491071426,-33.89303533928571,-4.934023194642856,8.607588901785714,0.43424021420535713,0.007874401971428573,-0.00359790908125,0.0020926497385714282,-1.048245584326131,1.483085545045989,1.586296344442027,1016.1183982142857,-100.0,-100.0,-100.0,-100.0,-100.0,-100.0,-82.0,-82.0,-55.0,-100.0,-100.0,-100.0,-100.0,-100.0,-100.0,-100.0,-100.0,-68.0,-100.0,-100.0,-100.0,-100.0,-60.0,-65.0,-100.0,-88.0,-62.0,-66.0,-100.0,-100.0,-44.0,-47.0,-60.0,-64.0,-53.0,-57.0,-51.0,-54.0,-100.0,-100.0,-100.0,-100.0,-61.0,-65.0,-100.0,-100.0,-61.0,-66.0,-100.0,-100.0,-44.0,-46.0,-60.0,-64.0,-52.0,-57.0,-50.0,-54.0,-100.0,-56.0,-86.0,-66.0,-81.0,-100.0,-82.0,-100.0,-59.0,-100.0,-100.0,-60.0,-75.0,-100.0,-100.0,-75.0,-100.0,-100.0,-67.0,-100.0,-100.0,-100.0,-100.0,-100.0,-100.0,-100.0,-100.0,-100.0,-100.0,-100.0,-100.0,-100.0,-100.0,-100.0,-100.0,-100.0,-100.0,-74.0,-100.0,-100.0,-100.0,-100.0,-100.0,-56.0,-100.0,-100.0,-100.0,-68.0,-100.0,-66.0,-100.0,-91.0,-60.0,-100.0,-80.0,-100.0,-80.0,-86.0,-100.0,-100.0,-100.0,-100.0,-100.0,-100.0,-100.0,-100.0,-73.0,-100.0,-100.0,-100.0,-100.0,-100.0,-100.0,-100.0,-100.0,-100.0,-100.0,-100.0,-100.0,-100.0,-100.0,-100.0,-100.0,-100.0,-100.0,-100.0,-100.0,-100.0,-100.0,-100.0,-100.0,-100.0,-100.0,-100.0,-100.0
2021.01.30 155754,51.0,24.0,6.25380515221239,-22.603539522123896,-33.504424265486726,-4.6126869548672556,8.771203314159292,0.36996842964778753,0.008053182481415929,-0.004302604888761062,0.0019093324518584072,-1.084923026836024,1.490722232160315,1.6531664312413308,1016.0988169911504,-100.0,-100.0,-100.0,-100.0,-100.0,-100.0,-83.0,-82.0,-58.0,-71.0,-100.0,-100.0,-100.0,-100.0,-100.0,-84.0,-100.0,-56.0,-100.0,-100.0,-100.0,-100.0,-64.0,-69.0,-100.0,-84.0,-58.0,-64.0,-100.0,-100.0,-44.0,-45.0,-100.0,-68.0,-54.0,-60.0,-53.0,-48.0,-56.0,-100.0,-100.0,-100.0,-100.0,-69.0,-100.0,-84.0,-59.0,-64.0,-100.0,-100.0,-45.0,-45.0,-100.0,-68.0,-55.0,-60.0,-53.0,-48.0,-100.0,-60.0,-85.0,-56.0,-79.0,-100.0,-79.0,-100.0,-61.0,-100.0,-100.0,-57.0,-75.0,-100.0,-100.0,-75.0,-100.0,-65.0,-62.0,-100.0,-100.0,-100.0,-100.0,-100.0,-100.0,-100.0,-100.0,-100.0,-100.0,-100.0,-100.0,-100.0,-100.0,-100.0,-100.0,-100.0,-100.0,-69.0,-100.0,-100.0,-100.0,-100.0,-100.0,-61.0,-100.0,-100.0,-100.0,-66.0,-100.0,-74.0,-100.0,-100.0,-75.0,-100.0,-74.0,-100.0,-75.0,-100.0,-100.0,-100.0,-100.0,-100.0,-100.0,-100.0,-100.0,-100.0,-100.0,-100.0,-100.0,-100.0,-100.0,-100.0,-100.0,-100.0,-100.0,-100.0,-100.0,-100.0,-100.0,-100.0,-100.0,-100.0,-100.0,-100.0,-100.0,-100.0,-100.0,-100.0,-100.0,-100.0,-100.0,-100.0,-100.0,-100.0,-100.0
2021.01.30 155804,52.0,24.0,6.161578842982457,-20.596315482456145,-33.046841596491234,-4.784475144736842,8.674310574561403,0.43023437727192987,0.010356137858596492,-0.00983363377377193,-0.014999903082807017,-1.0641977384425045,1.4792349411730181,1.6325375354080869,1016.0858622807018,-100.0,-100.0,-100.0,-100.0,-100.0,-100.0,-83.0,-82.0,-45.0,-77.0,-100.0,-100.0,-100.0,-100.0,-100.0,-82.0,-100.0,-56.0,-100.0,-64.0,-100.0,-100.0,-64.0,-72.0,-100.0,-85.0,-63.0,-72.0,-100.0,-100.0,-48.0,-49.0,-58.0,-69.0,-61.0,-65.0,-47.0,-53.0,-57.0,-68.0,-100.0,-100.0,-63.0,-72.0,-75.0,-85.0,-62.0,-72.0,-100.0,-100.0,-48.0,-49.0,-58.0,-69.0,-64.0,-65.0,-48.0,-53.0,-100.0,-63.0,-82.0,-45.0,-76.0,-100.0,-76.0,-100.0,-62.0,-100.0,-100.0,-53.0,-77.0,-100.0,-100.0,-77.0,-100.0,-63.0,-63.0,-100.0,-100.0,-100.0,-100.0,-100.0,-100.0,-100.0,-100.0,-100.0,-100.0,-100.0,-100.0,-100.0,-100.0,-100.0,-100.0,-100.0,-100.0,-68.0,-100.0,-100.0,-100.0,-100.0,-100.0,-100.0,-100.0,-100.0,-100.0,-74.0,-100.0,-64.0,-87.0,-100.0,-63.0,-100.0,-80.0,-100.0,-80.0,-74.0,-67.0,-100.0,-100.0,-72.0,-72.0,-100.0,-100.0,-100.0,-69.0,-85.0,-100.0,-100.0,-100.0,-100.0,-100.0,-100.0,-100.0,-100.0,-100.0,-100.0,-100.0,-100.0,-100.0,-100.0,-100.0,-100.0,-100.0,-100.0,-100.0,-100.0,-100.0,-100.0,-100.0,-100.0,-100.0,-100.0,-100.0
2021.01.30 155814,53.0,24.0,8.490825518348624,-22.195045568807338,-33.03137576146789,-4.858049490825687,8.657478032110092,0.0889176559174312,0.006920475483944954,-0.012575546617522934,0.007717833984587157,-1.0591975406769218,1.5523720771894542,1.6608830701320543,1016.0969289908256,-100.0,-100.0,-100.0,-100.0,-100.0,-100.0,-100.0,-85.0,-46.0,-78.0,-100.0,-100.0,-100.0,-100.0,-61.0,-100.0,-100.0,-62.0,-100.0,-100.0,-100.0,-100.0,-65.0,-61.0,-77.0,-89.0,-62.0,-71.0,-76.0,-100.0,-50.0,-53.0,-60.0,-70.0,-62.0,-60.0,-44.0,-47.0,-54.0,-100.0,-100.0,-100.0,-68.0,-61.0,-76.0,-100.0,-60.0,-71.0,-77.0,-100.0,-51.0,-53.0,-60.0,-70.0,-62.0,-60.0,-45.0,-48.0,-100.0,-65.0,-79.0,-53.0,-78.0,-100.0,-78.0,-100.0,-50.0,-100.0,-100.0,-51.0,-75.0,-100.0,-100.0,-75.0,-100.0,-100.0,-69.0,-100.0,-100.0,-100.0,-100.0,-100.0,-100.0,-100.0,-100.0,-100.0,-100.0,-100.0,-100.0,-100.0,-100.0,-100.0,-100.0,-100.0,-100.0,-64.0,-100.0,-100.0,-100.0,-100.0,-100.0,-55.0,-100.0,-100.0,-100.0,-69.0,-100.0,-65.0,-100.0,-100.0,-66.0,-86.0,-84.0,-100.0,-84.0,-79.0,-100.0,-100.0,-100.0,-100.0,-100.0,-100.0,-100.0,-85.0,-69.0,-86.0,-87.0,-89.0,-88.0,-100.0,-100.0,-100.0,-100.0,-100.0,-100.0,-100.0,-100.0,-100.0,-100.0,-100.0,-100.0,-100.0,-100.0,-100.0,-100.0,-100.0,-100.0,-100.0,-100.0,-100.0,-100.0,-100.0,-100.0
2021.01.30 155824,54.0,24.0,7.463898177118645,-22.881355661016947,-36.10016903389831,-4.635904453389831,8.768260483050849,0.13852300015254237,0.0024875469471186446,-0.0025736374870338986,0.005087627417118644,-1.084035873413086,1.5409856509354154,1.6600657549955078,1016.1151038983053,-100.0,-100.0,-100.0,-100.0,-100.0,-100.0,-86.0,-82.0,-48.0,-82.0,-100.0,-100.0,-100.0,-100.0,-100.0,-100.0,-100.0,-57.0,-86.0,-63.0,-100.0,-100.0,-59.0,-59.0,-73.0,-85.0,-63.0,-63.0,-100.0,-100.0,-54.0,-62.0,-62.0,-68.0,-63.0,-57.0,-47.0,-47.0,-51.0,-100.0,-100.0,-100.0,-60.0,-59.0,-73.0,-85.0,-67.0,-63.0,-100.0,-100.0,-53.0,-62.0,-62.0,-68.0,-63.0,-58.0,-47.0,-47.0,-100.0,-68.0,-80.0,-50.0,-78.0,-87.0,-78.0,-100.0,-54.0,-100.0,-100.0,-57.0,-68.0,-100.0,-100.0,-68.0,-100.0,-65.0,-77.0,-100.0,-100.0,-100.0,-100.0,-100.0,-100.0,-100.0,-100.0,-100.0,-100.0,-100.0,-100.0,-100.0,-100.0,-100.0,-100.0,-100.0,-100.0,-67.0,-100.0,-100.0,-100.0,-100.0,-100.0,-56.0,-100.0,-100.0,-100.0,-65.0,-100.0,-68.0,-90.0,-100.0,-68.0,-100.0,-87.0,-100.0,-85.0,-77.0,-68.0,-100.0,-100.0,-83.0,-100.0,-100.0,-100.0,-100.0,-74.0,-81.0,-100.0,-86.0,-86.0,-100.0,-100.0,-100.0,-100.0,-100.0,-100.0,-100.0,-100.0,-100.0,-100.0,-100.0,-100.0,-100.0,-100.0,-100.0,-100.0,-100.0,-100.0,-100.0,-100.0,-100.0,-100.0,-100.0,-100.0
2021.01.30 155835,55.0,24.0,10.548403142857145,-21.624705647058825,-35.73075573109243,-4.479285768067228,8.847348445378152,0.1712610694621849,0.0028565803961344543,-0.0029536772307563026,0.0005045286344537814,-1.1016070482109774,1.5323449723860796,1.5469278848471761,1016.1338775630252,-100.0,-100.0,-100.0,-100.0,-100.0,-100.0,-85.0,-81.0,-47.0,-68.0,-100.0,-100.0,-100.0,-89.0,-57.0,-100.0,-100.0,-54.0,-100.0,-64.0,-100.0,-100.0,-100.0,-64.0,-100.0,-82.0,-61.0,-66.0,-78.0,-100.0,-58.0,-63.0,-59.0,-68.0,-60.0,-61.0,-48.0,-47.0,-56.0,-100.0,-100.0,-100.0,-100.0,-64.0,-100.0,-81.0,-60.0,-66.0,-78.0,-100.0,-59.0,-63.0,-61.0,-69.0,-60.0,-61.0,-47.0,-47.0,-100.0,-71.0,-80.0,-58.0,-85.0,-87.0,-85.0,-78.0,-54.0,-100.0,-100.0,-65.0,-67.0,-100.0,-100.0,-67.0,-100.0,-63.0,-76.0,-100.0,-100.0,-100.0,-100.0,-100.0,-100.0,-100.0,-100.0,-100.0,-100.0,-100.0,-100.0,-100.0,-100.0,-100.0,-100.0,-100.0,-100.0,-72.0,-100.0,-100.0,-100.0,-100.0,-100.0,-56.0,-100.0,-100.0,-100.0,-74.0,-100.0,-62.0,-100.0,-100.0,-62.0,-100.0,-87.0,-100.0,-89.0,-71.0,-100.0,-100.0,-100.0,-100.0,-100.0,-100.0,-100.0,-85.0,-73.0,-79.0,-70.0,-89.0,-90.0,-65.0,-100.0,-100.0,-100.0,-100.0,-100.0,-100.0,-100.0,-100.0,-100.0,-100.0,-100.0,-100.0,-100.0,-100.0,-100.0,-100.0,-100.0,-100.0,-100.0,-100.0,-100.0,-100.0,-100.0
2021.01.30 155845,56.0,24.0,13.773157605263158,-19.186315605263157,-34.18210475438596,-4.738248852631579,8.715055346491228,0.10236574880701753,0.005635328345614034,-0.0018066500650877192,-0.0011429075291228077,-1.0723870323415388,1.549426415510345,1.46660960557168,1016.0989971929824,-100.0,-100.0,-100.0,-100.0,-100.0,-100.0,-100.0,-84.0,-60.0,-77.0,-100.0,-100.0,-100.0,-100.0,-55.0,-100.0,-100.0,-48.0,-100.0,-100.0,-100.0,-100.0,-64.0,-63.0,-100.0,-85.0,-52.0,-69.0,-78.0,-100.0,-57.0,-66.0,-59.0,-67.0,-61.0,-60.0,-41.0,-51.0,-51.0,-100.0,-100.0,-100.0,-64.0,-63.0,-100.0,-84.0,-56.0,-70.0,-77.0,-90.0,-57.0,-66.0,-60.0,-67.0,-62.0,-59.0,-42.0,-51.0,-100.0,-70.0,-83.0,-65.0,-84.0,-100.0,-84.0,-100.0,-61.0,-100.0,-100.0,-53.0,-64.0,-100.0,-100.0,-64.0,-100.0,-59.0,-78.0,-100.0,-82.0,-100.0,-83.0,-100.0,-100.0,-100.0,-100.0,-100.0,-100.0,-100.0,-100.0,-100.0,-100.0,-100.0,-100.0,-100.0,-100.0,-67.0,-100.0,-100.0,-100.0,-100.0,-100.0,-61.0,-100.0,-100.0,-100.0,-63.0,-100.0,-65.0,-100.0,-100.0,-63.0,-86.0,-88.0,-100.0,-88.0,-100.0,-65.0,-84.0,-100.0,-84.0,-84.0,-86.0,-100.0,-86.0,-64.0,-78.0,-100.0,-87.0,-88.0,-77.0,-100.0,-100.0,-100.0,-100.0,-100.0,-100.0,-100.0,-100.0,-100.0,-100.0,-100.0,-100.0,-100.0,-100.0,-100.0,-100.0,-100.0,-100.0,-100.0,-100.0,-100.0,-100.0,-100.0
2021.01.30 155855,57.0,24.0,14.523852995412845,-20.25192642201834,-32.77981600917431,-4.634832785321101,8.766648197247706,0.08395337874862387,0.003860545136238532,-0.004017828761559633,0.003565071243853212,-1.0840615941843856,1.552919309073632,1.4526781718665307,1016.07775853211,-100.0,-100.0,-100.0,-100.0,-100.0,-100.0,-100.0,-84.0,-57.0,-100.0,-100.0,-100.0,-100.0,-100.0,-41.0,-89.0,-100.0,-59.0,-100.0,-100.0,-100.0,-100.0,-100.0,-66.0,-100.0,-85.0,-53.0,-66.0,-100.0,-90.0,-60.0,-68.0,-60.0,-64.0,-60.0,-61.0,-44.0,-41.0,-58.0,-100.0,-100.0,-100.0,-100.0,-66.0,-100.0,-86.0,-55.0,-67.0,-100.0,-89.0,-60.0,-68.0,-62.0,-64.0,-61.0,-61.0,-44.0,-41.0,-100.0,-74.0,-74.0,-65.0,-81.0,-100.0,-82.0,-74.0,-63.0,-100.0,-100.0,-59.0,-62.0,-100.0,-100.0,-62.0,-100.0,-56.0,-69.0,-100.0,-100.0,-100.0,-100.0,-100.0,-100.0,-100.0,-100.0,-100.0,-100.0,-100.0,-100.0,-100.0,-100.0,-100.0,-100.0,-100.0,-100.0,-69.0,-100.0,-100.0,-100.0,-100.0,-100.0,-56.0,-100.0,-100.0,-100.0,-67.0,-100.0,-62.0,-100.0,-100.0,-64.0,-100.0,-100.0,-100.0,-100.0,-71.0,-67.0,-100.0,-100.0,-100.0,-100.0,-80.0,-100.0,-85.0,-68.0,-78.0,-67.0,-87.0,-87.0,-100.0,-76.0,-100.0,-100.0,-100.0,-100.0,-100.0,-100.0,-100.0,-100.0,-100.0,-100.0,-100.0,-100.0,-100.0,-100.0,-100.0,-100.0,-100.0,-100.0,-100.0,-100.0,-100.0,-100.0
2021.01.30 155905,58.0,24.0,15.207321102678572,-22.549285482142857,-30.461785258928575,-4.601561009821429,8.785021808035713,0.11407009247321429,0.0056218364574999995,-0.006488610685535713,0.0026271570092857147,-1.087836938244956,1.5459017232060432,1.4504958997879709,1016.0889176785713,-100.0,-100.0,-100.0,-100.0,-100.0,-100.0,-86.0,-100.0,-59.0,-80.0,-100.0,-100.0,-100.0,-100.0,-60.0,-100.0,-100.0,-57.0,-87.0,-71.0,-100.0,-100.0,-61.0,-67.0,-72.0,-89.0,-56.0,-58.0,-100.0,-100.0,-60.0,-69.0,-62.0,-67.0,-63.0,-60.0,-41.0,-37.0,-57.0,-75.0,-100.0,-100.0,-60.0,-67.0,-100.0,-89.0,-55.0,-58.0,-100.0,-100.0,-61.0,-68.0,-54.0,-67.0,-63.0,-60.0,-41.0,-37.0,-100.0,-100.0,-76.0,-69.0,-81.0,-85.0,-81.0,-78.0,-62.0,-100.0,-100.0,-62.0,-62.0,-100.0,-100.0,-62.0,-100.0,-51.0,-100.0,-100.0,-100.0,-100.0,-100.0,-100.0,-100.0,-100.0,-100.0,-100.0,-100.0,-100.0,-100.0,-100.0,-100.0,-100.0,-100.0,-100.0,-100.0,-65.0,-100.0,-100.0,-100.0,-100.0,-100.0,-100.0,-100.0,-100.0,-100.0,-100.0,-100.0,-60.0,-100.0,-100.0,-72.0,-100.0,-100.0,-100.0,-100.0,-73.0,-73.0,-80.0,-100.0,-100.0,-100.0,-100.0,-100.0,-85.0,-65.0,-83.0,-100.0,-87.0,-87.0,-79.0,-100.0,-82.0,-77.0,-100.0,-100.0,-100.0,-100.0,-100.0,-100.0,-100.0,-100.0,-100.0,-100.0,-100.0,-100.0,-100.0,-100.0,-100.0,-100.0,-100.0,-100.0,-100.0,-100.0
2021.01.30 155914,59.0,24.0,13.389729468468472,-23.04216181981982,-26.81135103603604,-4.380854211711711,8.889791436936937,0.06486111860000002,0.00288252435990991,-0.006886911095315315,0.0031102671682882877,-1.1126040263218924,1.556239475001086,1.4924015827007122,1016.1066039639642,-100.0,-100.0,-100.0,-100.0,-100.0,-100.0,-100.0,-100.0,-57.0,-100.0,-100.0,-100.0,-100.0,-100.0,-100.0,-100.0,-100.0,-42.0,-100.0,-71.0,-100.0,-100.0,-60.0,-72.0,-76.0,-89.0,-52.0,-63.0,-100.0,-100.0,-61.0,-68.0,-59.0,-67.0,-64.0,-66.0,-31.0,-33.0,-41.0,-70.0,-100.0,-100.0,-60.0,-72.0,-78.0,-100.0,-55.0,-63.0,-100.0,-100.0,-61.0,-68.0,-62.0,-67.0,-64.0,-66.0,-29.0,-33.0,-100.0,-80.0,-74.0,-68.0,-85.0,-100.0,-84.0,-80.0,-69.0,-100.0,-100.0,-63.0,-66.0,-100.0,-100.0,-65.0,-100.0,-52.0,-84.0,-100.0,-100.0,-100.0,-100.0,-100.0,-100.0,-100.0,-100.0,-100.0,-100.0,-100.0,-100.0,-100.0,-100.0,-100.0,-100.0,-100.0,-100.0,-69.0,-100.0,-100.0,-100.0,-100.0,-100.0,-59.0,-100.0,-100.0,-100.0,-64.0,-100.0,-61.0,-100.0,-100.0,-63.0,-100.0,-100.0,-100.0,-100.0,-58.0,-67.0,-80.0,-100.0,-100.0,-100.0,-100.0,-100.0,-78.0,-62.0,-83.0,-63.0,-89.0,-90.0,-100.0,-68.0,-100.0,-100.0,-54.0,-86.0,-100.0,-100.0,-100.0,-100.0,-100.0,-100.0,-100.0,-100.0,-100.0,-100.0,-100.0,-100.0,-100.0,-100.0,-100.0,-100.0,-100.0,-100.0
2021.01.30 155924,60.0,24.0,13.187142544642857,-26.311606678571426,-24.511606857142855,-4.40986940625,8.880514924107144,0.1245664220392857,0.0015748540439285716,-0.003690629739642857,0.004803364393928573,-1.1095243766903877,1.542354944561209,1.543456355375903,1016.1156824107144,-100.0,-100.0,-100.0,-100.0,-100.0,-100.0,-100.0,-100.0,-56.0,-100.0,-100.0,-100.0,-100.0,-100.0,-100.0,-100.0,-100.0,-44.0,-100.0,-74.0,-100.0,-100.0,-100.0,-69.0,-100.0,-100.0,-57.0,-62.0,-75.0,-100.0,-62.0,-65.0,-61.0,-69.0,-100.0,-61.0,-33.0,-29.0,-44.0,-100.0,-100.0,-100.0,-100.0,-68.0,-100.0,-88.0,-59.0,-62.0,-100.0,-100.0,-64.0,-65.0,-61.0,-69.0,-64.0,-61.0,-32.0,-29.0,-100.0,-100.0,-73.0,-66.0,-86.0,-100.0,-86.0,-65.0,-68.0,-100.0,-100.0,-58.0,-60.0,-100.0,-100.0,-60.0,-100.0,-49.0,-87.0,-100.0,-100.0,-100.0,-100.0,-100.0,-100.0,-100.0,-100.0,-100.0,-100.0,-100.0,-100.0,-100.0,-100.0,-100.0,-100.0,-100.0,-100.0,-68.0,-100.0,-100.0,-100.0,-100.0,-100.0,-57.0,-100.0,-100.0,-100.0,-68.0,-100.0,-66.0,-100.0,-100.0,-65.0,-100.0,-100.0,-100.0,-100.0,-53.0,-60.0,-78.0,-100.0,-100.0,-100.0,-73.0,-100.0,-73.0,-68.0,-69.0,-100.0,-88.0,-87.0,-100.0,-74.0,-80.0,-78.0,-100.0,-100.0,-100.0,-100.0,-100.0,-100.0,-100.0,-100.0,-100.0,-100.0,-100.0,-100.0,-100.0,-100.0,-100.0,-100.0,-100.0,-100.0,-100.0,-100.0
2021.01.30 155934,61.0,24.0,9.994137775862068,-29.52465473275863,-28.806206612068966,-4.527573659482758,8.817205978448277,0.09176677270172413,0.002220136917241379,-0.005190521909741379,-0.001965617023103448,-1.096046187754335,1.5498159959398468,1.7122736028556167,1016.1293662068965,-100.0,-100.0,-100.0,-100.0,-100.0,-100.0,-86.0,-83.0,-100.0,-100.0,-100.0,-100.0,-100.0,-100.0,-53.0,-100.0,-100.0,-46.0,-100.0,-72.0,-100.0,-100.0,-59.0,-67.0,-100.0,-100.0,-59.0,-61.0,-100.0,-100.0,-100.0,-70.0,-65.0,-68.0,-66.0,-60.0,-30.0,-37.0,-47.0,-71.0,-100.0,-100.0,-100.0,-68.0,-100.0,-100.0,-59.0,-61.0,-100.0,-100.0,-100.0,-70.0,-65.0,-68.0,-66.0,-60.0,-30.0,-37.0,-100.0,-80.0,-65.0,-71.0,-85.0,-100.0,-84.0,-62.0,-70.0,-100.0,-100.0,-66.0,-60.0,-89.0,-100.0,-62.0,-100.0,-40.0,-79.0,-100.0,-100.0,-100.0,-100.0,-100.0,-100.0,-100.0,-100.0,-100.0,-100.0,-100.0,-100.0,-100.0,-100.0,-100.0,-100.0,-100.0,-100.0,-74.0,-100.0,-100.0,-100.0,-100.0,-100.0,-49.0,-100.0,-100.0,-100.0,-100.0,-100.0,-66.0,-100.0,-100.0,-64.0,-100.0,-100.0,-100.0,-100.0,-100.0,-65.0,-86.0,-100.0,-100.0,-100.0,-73.0,-100.0,-100.0,-69.0,-76.0,-64.0,-85.0,-84.0,-100.0,-100.0,-100.0,-100.0,-100.0,-100.0,-91.0,-100.0,-100.0,-100.0,-100.0,-100.0,-100.0,-100.0,-100.0,-100.0,-100.0,-100.0,-100.0,-100.0,-100.0,-100.0,-100.0,-100.0
2021.01.30 155945,62.0,24.0,11.56862048275862,-28.266723862068964,-31.108447853448276,-4.67341803448276,8.742570616379309,-0.02439683451896552,0.0017356577161206895,-0.006306930879396553,-0.002492224743275862,-1.0794726712950344,1.576308899912341,1.677237534317477,1016.1405149137931,-100.0,-100.0,-100.0,-100.0,-100.0,-100.0,-100.0,-83.0,-63.0,-100.0,-100.0,-100.0,-100.0,-100.0,-56.0,-100.0,-100.0,-46.0,-100.0,-73.0,-100.0,-100.0,-57.0,-65.0,-100.0,-86.0,-52.0,-60.0,-78.0,-100.0,-66.0,-67.0,-64.0,-71.0,-60.0,-62.0,-29.0,-35.0,-46.0,-72.0,-100.0,-100.0,-55.0,-65.0,-100.0,-88.0,-53.0,-60.0,-77.0,-100.0,-66.0,-67.0,-61.0,-71.0,-64.0,-62.0,-29.0,-35.0,-100.0,-100.0,-71.0,-75.0,-91.0,-100.0,-90.0,-61.0,-68.0,-100.0,-100.0,-67.0,-59.0,-100.0,-100.0,-59.0,-100.0,-53.0,-82.0,-100.0,-100.0,-100.0,-100.0,-100.0,-100.0,-100.0,-100.0,-100.0,-100.0,-100.0,-100.0,-100.0,-100.0,-100.0,-100.0,-100.0,-100.0,-68.0,-100.0,-100.0,-100.0,-100.0,-100.0,-100.0,-100.0,-100.0,-100.0,-66.0,-100.0,-64.0,-100.0,-100.0,-64.0,-100.0,-100.0,-100.0,-100.0,-69.0,-66.0,-82.0,-100.0,-100.0,-100.0,-64.0,-100.0,-81.0,-100.0,-79.0,-66.0,-90.0,-88.0,-67.0,-75.0,-100.0,-83.0,-72.0,-100.0,-100.0,-92.0,-89.0,-100.0,-100.0,-100.0,-100.0,-100.0,-100.0,-100.0,-100.0,-100.0,-100.0,-100.0,-100.0,-100.0,-100.0,-100.0
2021.01.30 155955,63.0,24.0,14.887999666666666,-30.121499599999993,-32.44449958333333,-5.208665043333334,8.432795479166666,-0.24044504848999998,0.002236988442749999,-0.0016525941212500001,0.0017195856681666668,-1.0165963893135388,1.6170618573824564,1.7059545397758484,1016.1412244999999,-100.0,-100.0,-100.0,-100.0,-100.0,-100.0,-100.0,-90.0,-66.0,-100.0,-100.0,-100.0,-100.0,-100.0,-55.0,-100.0,-100.0,-46.0,-100.0,-100.0,-100.0,-100.0,-58.0,-68.0,-100.0,-100.0,-49.0,-66.0,-100.0,-100.0,-68.0,-73.0,-67.0,-68.0,-65.0,-61.0,-33.0,-41.0,-45.0,-100.0,-100.0,-100.0,-57.0,-68.0,-100.0,-100.0,-49.0,-66.0,-100.0,-100.0,-68.0,-73.0,-66.0,-68.0,-65.0,-61.0,-33.0,-41.0,-100.0,-100.0,-62.0,-75.0,-85.0,-100.0,-82.0,-57.0,-78.0,-100.0,-100.0,-100.0,-61.0,-100.0,-100.0,-61.0,-100.0,-57.0,-79.0,-100.0,-100.0,-100.0,-100.0,-100.0,-100.0,-100.0,-100.0,-100.0,-100.0,-100.0,-100.0,-100.0,-100.0,-100.0,-100.0,-100.0,-100.0,-77.0,-100.0,-100.0,-100.0,-100.0,-100.0,-65.0,-100.0,-100.0,-100.0,-100.0,-100.0,-100.0,-100.0,-100.0,-100.0,-100.0,-100.0,-100.0,-100.0,-71.0,-51.0,-100.0,-100.0,-100.0,-100.0,-66.0,-100.0,-85.0,-100.0,-81.0,-67.0,-85.0,-86.0,-74.0,-75.0,-100.0,-100.0,-61.0,-100.0,-100.0,-89.0,-100.0,-89.0,-100.0,-100.0,-100.0,-100.0,-100.0,-100.0,-100.0,-100.0,-100.0,-100.0,-100.0,-100.0,-100.0,-100.0
2021.01.30 160005,64.0,24.0,11.116756536036034,-28.66864827027027,-36.265945495495494,-4.963763081981983,8.583906572072072,-0.09840253726846847,-0.0018007756290090093,0.0007131327486486483,0.0011180759509909909,-1.0462676931071926,1.590596141041936,1.717220917478338,1016.131676846847,-100.0,-100.0,-100.0,-100.0,-100.0,-100.0,-100.0,-84.0,-65.0,-73.0,-100.0,-100.0,-100.0,-100.0,-52.0,-100.0,-100.0,-45.0,-100.0,-100.0,-100.0,-100.0,-57.0,-67.0,-80.0,-86.0,-51.0,-67.0,-78.0,-100.0,-100.0,-78.0,-61.0,-67.0,-62.0,-56.0,-38.0,-38.0,-45.0,-100.0,-100.0,-100.0,-57.0,-67.0,-100.0,-86.0,-51.0,-67.0,-78.0,-100.0,-67.0,-77.0,-66.0,-67.0,-62.0,-56.0,-39.0,-39.0,-100.0,-80.0,-61.0,-76.0,-85.0,-100.0,-89.0,-58.0,-77.0,-100.0,-100.0,-72.0,-62.0,-100.0,-100.0,-62.0,-100.0,-60.0,-86.0,-100.0,-100.0,-100.0,-100.0,-100.0,-100.0,-100.0,-100.0,-100.0,-100.0,-100.0,-100.0,-100.0,-100.0,-100.0,-100.0,-100.0,-100.0,-71.0,-100.0,-100.0,-100.0,-100.0,-100.0,-100.0,-100.0,-100.0,-100.0,-100.0,-100.0,-62.0,-100.0,-100.0,-62.0,-81.0,-100.0,-79.0,-100.0,-71.0,-52.0,-80.0,-100.0,-100.0,-100.0,-66.0,-100.0,-83.0,-71.0,-76.0,-72.0,-88.0,-89.0,-62.0,-74.0,-100.0,-81.0,-100.0,-78.0,-100.0,-91.0,-85.0,-100.0,-91.0,-86.0,-78.0,-88.0,-100.0,-100.0,-100.0,-100.0,-100.0,-100.0,-100.0,-100.0,-100.0,-100.0
2021.01.30 160015,65.0,24.0,11.008073123853212,-28.966788651376145,-40.56990765137614,-4.713250762385321,8.728932862385323,0.09774791559266055,-0.0016428466018348622,-0.004062663100366973,0.0008245841144954127,-1.0752397272564949,1.5506459244894326,1.6542579744933943,1016.1432382568805,-100.0,-100.0,-100.0,-100.0,-100.0,-100.0,-88.0,-100.0,-67.0,-79.0,-100.0,-100.0,-100.0,-100.0,-60.0,-100.0,-100.0,-46.0,-100.0,-78.0,-100.0,-100.0,-59.0,-69.0,-100.0,-88.0,-52.0,-57.0,-100.0,-100.0,-65.0,-73.0,-64.0,-71.0,-65.0,-69.0,-38.0,-42.0,-46.0,-78.0,-100.0,-100.0,-59.0,-69.0,-100.0,-88.0,-54.0,-57.0,-100.0,-100.0,-64.0,-73.0,-61.0,-71.0,-64.0,-69.0,-37.0,-42.0,-100.0,-79.0,-63.0,-76.0,-90.0,-100.0,-89.0,-68.0,-76.0,-100.0,-100.0,-71.0,-63.0,-100.0,-100.0,-63.0,-100.0,-56.0,-85.0,-100.0,-100.0,-100.0,-100.0,-100.0,-100.0,-100.0,-100.0,-100.0,-100.0,-100.0,-100.0,-100.0,-100.0,-100.0,-100.0,-100.0,-100.0,-75.0,-100.0,-100.0,-100.0,-100.0,-100.0,-60.0,-100.0,-91.0,-100.0,-100.0,-100.0,-65.0,-100.0,-100.0,-66.0,-81.0,-100.0,-82.0,-100.0,-77.0,-50.0,-100.0,-100.0,-100.0,-100.0,-69.0,-100.0,-85.0,-71.0,-83.0,-100.0,-86.0,-86.0,-75.0,-74.0,-100.0,-100.0,-100.0,-100.0,-100.0,-90.0,-100.0,-100.0,-100.0,-100.0,-100.0,-100.0,-100.0,-100.0,-100.0,-100.0,-100.0,-100.0,-100.0,-100.0,-100.0,-100.0
2021.01.30 160025,66.0,24.0,15.359999784403668,-32.33669677981652,-43.78018283486238,-4.702575377981651,8.72860333027523,0.0069631654275229314,-0.0064176831657798165,0.002359828590733945,0.0024778433521100924,-1.0761822210539371,1.5695199452408957,1.6116777975624854,1016.146567706422,-100.0,-100.0,-100.0,-100.0,-100.0,-100.0,-89.0,-100.0,-69.0,-100.0,-100.0,-100.0,-100.0,-100.0,-60.0,-100.0,-100.0,-48.0,-100.0,-100.0,-100.0,-100.0,-57.0,-72.0,-100.0,-100.0,-56.0,-59.0,-100.0,-89.0,-74.0,-73.0,-65.0,-70.0,-71.0,-71.0,-42.0,-52.0,-49.0,-100.0,-100.0,-100.0,-57.0,-72.0,-100.0,-100.0,-58.0,-59.0,-100.0,-91.0,-100.0,-73.0,-65.0,-70.0,-71.0,-71.0,-42.0,-52.0,-100.0,-80.0,-70.0,-79.0,-100.0,-100.0,-100.0,-57.0,-78.0,-100.0,-100.0,-74.0,-66.0,-100.0,-100.0,-66.0,-100.0,-57.0,-100.0,-100.0,-100.0,-100.0,-100.0,-100.0,-100.0,-100.0,-100.0,-100.0,-100.0,-100.0,-100.0,-100.0,-100.0,-100.0,-100.0,-100.0,-100.0,-81.0,-100.0,-100.0,-100.0,-100.0,-100.0,-62.0,-100.0,-100.0,-100.0,-100.0,-100.0,-68.0,-100.0,-100.0,-69.0,-77.0,-100.0,-77.0,-100.0,-82.0,-61.0,-71.0,-100.0,-88.0,-100.0,-77.0,-100.0,-88.0,-100.0,-85.0,-74.0,-88.0,-88.0,-100.0,-75.0,-74.0,-72.0,-65.0,-100.0,-100.0,-100.0,-84.0,-100.0,-100.0,-88.0,-81.0,-89.0,-88.0,-100.0,-100.0,-100.0,-100.0,-100.0,-100.0,-100.0,-100.0,-100.0
2021.01.30 160034,67.0,24.0,20.547272427272723,-32.38199933636364,-45.63654474545455,-4.783303978181819,8.68499245909091,-0.03865665550727273,-0.0003064322957272725,-0.0030608235553636364,0.0004145552956363641,-1.067012987353585,1.5789937485348096,1.52622666684064,1016.1620680909093,-100.0,-100.0,-100.0,-100.0,-100.0,-100.0,-88.0,-100.0,-100.0,-100.0,-100.0,-100.0,-100.0,-100.0,-100.0,-100.0,-100.0,-48.0,-100.0,-75.0,-100.0,-100.0,-59.0,-72.0,-77.0,-88.0,-55.0,-58.0,-100.0,-100.0,-71.0,-77.0,-65.0,-68.0,-70.0,-67.0,-39.0,-51.0,-49.0,-73.0,-100.0,-100.0,-58.0,-72.0,-78.0,-86.0,-54.0,-58.0,-100.0,-100.0,-72.0,-78.0,-65.0,-68.0,-68.0,-67.0,-39.0,-51.0,-100.0,-76.0,-66.0,-74.0,-100.0,-100.0,-100.0,-55.0,-81.0,-90.0,-100.0,-76.0,-68.0,-100.0,-100.0,-67.0,-100.0,-58.0,-87.0,-100.0,-100.0,-100.0,-100.0,-100.0,-100.0,-100.0,-100.0,-100.0,-100.0,-100.0,-100.0,-100.0,-100.0,-100.0,-100.0,-100.0,-100.0,-83.0,-100.0,-100.0,-100.0,-100.0,-100.0,-100.0,-100.0,-100.0,-100.0,-100.0,-100.0,-63.0,-100.0,-100.0,-63.0,-74.0,-100.0,-77.0,-100.0,-77.0,-61.0,-77.0,-100.0,-100.0,-100.0,-65.0,-100.0,-100.0,-100.0,-88.0,-100.0,-100.0,-100.0,-75.0,-75.0,-100.0,-73.0,-61.0,-78.0,-100.0,-100.0,-84.0,-100.0,-100.0,-85.0,-100.0,-85.0,-100.0,-100.0,-100.0,-100.0,-100.0,-100.0,-100.0,-100.0,-100.0,-100.0
2021.01.30 160044,68.0,24.0,24.211090572727272,-32.87618135454546,-45.98672658181819,-4.979503936363636,8.567194081818181,-0.2089113603272727,-0.0006785046980000002,0.0006487945343636367,-0.0015124469318181825,-1.0435676666823301,1.6125450665300542,1.5132368391210382,1016.1677631818181,-100.0,-100.0,-100.0,-100.0,-100.0,-100.0,-100.0,-100.0,-76.0,-100.0,-100.0,-100.0,-100.0,-100.0,-62.0,-100.0,-100.0,-50.0,-100.0,-76.0,-100.0,-100.0,-59.0,-75.0,-100.0,-87.0,-52.0,-53.0,-83.0,-100.0,-72.0,-74.0,-64.0,-67.0,-68.0,-70.0,-39.0,-54.0,-50.0,-80.0,-100.0,-100.0,-60.0,-75.0,-100.0,-86.0,-53.0,-53.0,-84.0,-100.0,-72.0,-74.0,-64.0,-67.0,-69.0,-70.0,-40.0,-54.0,-100.0,-76.0,-66.0,-74.0,-88.0,-86.0,-84.0,-48.0,-81.0,-100.0,-100.0,-79.0,-65.0,-100.0,-100.0,-65.0,-100.0,-59.0,-100.0,-100.0,-100.0,-100.0,-100.0,-100.0,-100.0,-100.0,-100.0,-100.0,-100.0,-100.0,-100.0,-100.0,-100.0,-100.0,-100.0,-100.0,-100.0,-79.0,-100.0,-100.0,-100.0,-100.0,-100.0,-100.0,-100.0,-100.0,-100.0,-85.0,-100.0,-72.0,-100.0,-100.0,-72.0,-65.0,-100.0,-56.0,-100.0,-80.0,-55.0,-100.0,-100.0,-100.0,-100.0,-64.0,-100.0,-88.0,-100.0,-85.0,-74.0,-87.0,-88.0,-100.0,-79.0,-74.0,-83.0,-64.0,-80.0,-100.0,-91.0,-100.0,-100.0,-100.0,-87.0,-100.0,-87.0,-100.0,-80.0,-100.0,-100.0,-100.0,-100.0,-100.0,-100.0,-100.0,-100.0
2021.01.30 160054,69.0,24.0,23.365486504424776,-35.599114539823006,-41.551326938053094,-4.848936192920354,8.655091491150442,-0.05055521893451327,-0.00039621909035398174,-0.003426851158672566,0.0032662101074336287,-1.0597607387905628,1.5813227870823008,1.5090564215077764,1016.1432771681416,-100.0,-100.0,-100.0,-100.0,-100.0,-100.0,-88.0,-100.0,-66.0,-100.0,-100.0,-100.0,-100.0,-100.0,-100.0,-100.0,-100.0,-52.0,-100.0,-76.0,-100.0,-100.0,-61.0,-71.0,-100.0,-87.0,-50.0,-57.0,-85.0,-100.0,-71.0,-76.0,-59.0,-69.0,-71.0,-65.0,-45.0,-49.0,-51.0,-76.0,-100.0,-100.0,-60.0,-71.0,-100.0,-87.0,-50.0,-57.0,-83.0,-100.0,-71.0,-75.0,-64.0,-69.0,-68.0,-65.0,-46.0,-49.0,-100.0,-80.0,-68.0,-79.0,-100.0,-100.0,-100.0,-61.0,-78.0,-100.0,-100.0,-80.0,-71.0,-100.0,-100.0,-71.0,-100.0,-67.0,-85.0,-100.0,-100.0,-100.0,-100.0,-100.0,-100.0,-100.0,-100.0,-100.0,-100.0,-100.0,-100.0,-100.0,-100.0,-100.0,-100.0,-100.0,-100.0,-85.0,-100.0,-100.0,-100.0,-100.0,-100.0,-100.0,-100.0,-100.0,-100.0,-100.0,-100.0,-67.0,-100.0,-100.0,-66.0,-100.0,-100.0,-100.0,-100.0,-80.0,-61.0,-75.0,-100.0,-100.0,-100.0,-64.0,-100.0,-88.0,-71.0,-87.0,-100.0,-88.0,-88.0,-100.0,-78.0,-71.0,-75.0,-100.0,-100.0,-100.0,-100.0,-100.0,-100.0,-100.0,-89.0,-87.0,-90.0,-100.0,-100.0,-100.0,-100.0,-100.0,-100.0,-100.0,-100.0,-100.0,-100.0
2021.01.30 160104,70.0,24.0,21.30981795454546,-34.48909048181819,-36.774544918181824,-5.144055869999999,8.490229072727272,0.09607571773272726,-0.0019502150860909093,-0.005443197954909093,0.004374072782727273,-1.0256002583286978,1.552252546223727,1.545966625213623,1016.1242082727273,-100.0,-100.0,-100.0,-100.0,-100.0,-100.0,-100.0,-100.0,-65.0,-80.0,-100.0,-100.0,-100.0,-100.0,-59.0,-100.0,-100.0,-49.0,-100.0,-79.0,-100.0,-100.0,-61.0,-74.0,-77.0,-100.0,-54.0,-57.0,-100.0,-100.0,-66.0,-73.0,-56.0,-73.0,-66.0,-68.0,-44.0,-51.0,-49.0,-77.0,-100.0,-100.0,-61.0,-74.0,-75.0,-100.0,-52.0,-57.0,-84.0,-100.0,-66.0,-74.0,-58.0,-73.0,-66.0,-68.0,-44.0,-51.0,-100.0,-78.0,-63.0,-85.0,-87.0,-100.0,-84.0,-54.0,-81.0,-100.0,-100.0,-77.0,-68.0,-100.0,-100.0,-68.0,-100.0,-67.0,-100.0,-100.0,-100.0,-100.0,-100.0,-100.0,-100.0,-100.0,-100.0,-100.0,-100.0,-100.0,-100.0,-100.0,-100.0,-100.0,-100.0,-100.0,-100.0,-79.0,-100.0,-100.0,-100.0,-100.0,-100.0,-100.0,-100.0,-100.0,-100.0,-100.0,-100.0,-67.0,-100.0,-100.0,-66.0,-100.0,-100.0,-100.0,-100.0,-79.0,-60.0,-75.0,-100.0,-100.0,-100.0,-80.0,-100.0,-88.0,-76.0,-100.0,-100.0,-100.0,-100.0,-100.0,-82.0,-64.0,-75.0,-57.0,-100.0,-100.0,-100.0,-100.0,-100.0,-87.0,-83.0,-100.0,-83.0,-100.0,-100.0,-100.0,-100.0,-100.0,-100.0,-100.0,-100.0,-100.0,-100.0
2021.01.30 160114,71.0,24.0,21.66052606140351,-36.245789131578945,-33.86578905263158,-4.821964456140351,8.669669054385965,0.17990664848596488,0.003395489141052632,-0.005905877383859649,0.004044088656842106,-1.0627411394788508,1.5333772092534785,1.4991820559167026,1016.1209721052634,-100.0,-100.0,-100.0,-100.0,-100.0,-100.0,-88.0,-100.0,-73.0,-83.0,-100.0,-100.0,-100.0,-100.0,-60.0,-100.0,-100.0,-53.0,-100.0,-73.0,-100.0,-100.0,-60.0,-72.0,-100.0,-88.0,-50.0,-56.0,-100.0,-100.0,-70.0,-74.0,-65.0,-70.0,-60.0,-65.0,-45.0,-49.0,-52.0,-73.0,-100.0,-100.0,-59.0,-72.0,-100.0,-88.0,-50.0,-56.0,-100.0,-100.0,-100.0,-74.0,-67.0,-70.0,-61.0,-65.0,-46.0,-49.0,-100.0,-80.0,-56.0,-80.0,-91.0,-100.0,-90.0,-60.0,-80.0,-100.0,-100.0,-100.0,-74.0,-100.0,-100.0,-74.0,-100.0,-67.0,-100.0,-100.0,-100.0,-100.0,-100.0,-100.0,-100.0,-100.0,-100.0,-100.0,-100.0,-100.0,-100.0,-100.0,-100.0,-100.0,-100.0,-100.0,-100.0,-83.0,-100.0,-100.0,-100.0,-100.0,-100.0,-100.0,-100.0,-100.0,-100.0,-83.0,-100.0,-72.0,-100.0,-100.0,-74.0,-75.0,-100.0,-72.0,-100.0,-82.0,-63.0,-66.0,-100.0,-100.0,-100.0,-76.0,-100.0,-100.0,-79.0,-88.0,-100.0,-100.0,-100.0,-100.0,-83.0,-68.0,-66.0,-100.0,-100.0,-100.0,-100.0,-73.0,-100.0,-87.0,-82.0,-69.0,-83.0,-100.0,-100.0,-100.0,-100.0,-100.0,-100.0,-100.0,-100.0,-100.0,-100.0
2021.01.30 160124,72.0,24.0,17.82368403508772,-39.67473629824561,-33.019473026315794,-4.877872877192982,8.634280043859649,0.17753337611929823,0.0035508845140350886,-0.004507317331666667,0.0038458253296491233,-1.0560762139788844,1.534415760584045,1.6633702558383607,1016.1268296491229,-100.0,-100.0,-100.0,-87.0,-100.0,-100.0,-88.0,-100.0,-100.0,-100.0,-100.0,-100.0,-100.0,-100.0,-100.0,-100.0,-100.0,-59.0,-100.0,-79.0,-100.0,-100.0,-62.0,-71.0,-100.0,-100.0,-46.0,-61.0,-100.0,-100.0,-71.0,-78.0,0.0,-70.0,-65.0,-65.0,0.0,-54.0,-59.0,-80.0,-100.0,-100.0,-62.0,-72.0,-100.0,-100.0,-46.0,-61.0,-100.0,-100.0,-71.0,-78.0,0.0,-70.0,-63.0,-65.0,0.0,-54.0,-100.0,-81.0,-66.0,-81.0,-89.0,-100.0,-89.0,-67.0,-100.0,-100.0,-100.0,-100.0,-79.0,-100.0,-100.0,-78.0,-100.0,-69.0,-100.0,-100.0,-90.0,-100.0,-100.0,-100.0,-100.0,-100.0,-100.0,-100.0,-100.0,-100.0,-100.0,-100.0,-100.0,-100.0,-100.0,-100.0,-100.0,-83.0,-100.0,-100.0,-100.0,-100.0,-100.0,-100.0,-100.0,-100.0,-100.0,-100.0,-100.0,-73.0,-100.0,-100.0,-71.0,-100.0,-100.0,-100.0,-100.0,-83.0,0.0,-64.0,-100.0,-100.0,-100.0,-79.0,-100.0,-100.0,-100.0,-100.0,-80.0,-100.0,-100.0,-100.0,-100.0,0.0,-62.0,-76.0,-100.0,-100.0,-100.0,-74.0,-100.0,-88.0,-83.0,-82.0,-82.0,-100.0,0.0,-80.0,-91.0,-81.0,-89.0,-100.0,-100.0,-100.0,-100.0
2021.01.30 160135,73.0,24.0,12.283255484496125,-38.776278596899225,-35.21953439534884,-4.795769548062015,8.691013310077517,0.2765665811271318,-0.001046057173023256,-0.004838919305503876,0.0028953830964341086,-1.0655305579651233,1.513098299041275,1.750930670619935,1016.1227270542636,-100.0,-100.0,-100.0,-100.0,-100.0,-100.0,-90.0,-100.0,-70.0,-80.0,-100.0,-100.0,-100.0,-100.0,-72.0,-100.0,-100.0,-55.0,-100.0,-80.0,-100.0,-100.0,-62.0,-74.0,-100.0,-100.0,-49.0,-48.0,-100.0,-100.0,-100.0,-78.0,-100.0,-72.0,-65.0,-71.0,-48.0,-59.0,-55.0,-80.0,-100.0,-100.0,-62.0,-75.0,-100.0,-100.0,-48.0,-48.0,-100.0,-100.0,-100.0,-78.0,-62.0,-73.0,-65.0,-71.0,-100.0,-59.0,-100.0,-100.0,-71.0,-87.0,-100.0,-92.0,-100.0,-100.0,-84.0,-100.0,-100.0,-79.0,-78.0,-100.0,-100.0,-79.0,-100.0,-71.0,-100.0,-100.0,-100.0,-100.0,-100.0,-100.0,-100.0,-100.0,-100.0,-100.0,-100.0,-100.0,-100.0,-100.0,-100.0,-100.0,-100.0,-100.0,-100.0,-89.0,-100.0,-100.0,-100.0,-100.0,-100.0,-100.0,-100.0,-100.0,-100.0,-100.0,-100.0,-73.0,-100.0,-100.0,-71.0,-100.0,-100.0,-100.0,-100.0,-89.0,-100.0,-63.0,-100.0,-100.0,-100.0,-82.0,-100.0,-100.0,-100.0,-100.0,-100.0,-100.0,-100.0,-100.0,-100.0,-68.0,-62.0,-100.0,-100.0,-100.0,-100.0,-71.0,-100.0,-89.0,-80.0,-76.0,-80.0,-100.0,-70.0,-100.0,-100.0,-100.0,-100.0,-100.0,-100.0,-100.0,-100.0
2021.01.30 160145,74.0,24.0,11.84702685135135,-35.14810774774775,-40.51567523423424,-4.76452057927928,8.706381292792795,0.26302510930090084,0.0007857708781081083,-0.004718614843603604,-0.0011107566293693692,-1.0692679323591627,1.515474262538257,1.6852354219367913,1016.1418638738741,-100.0,-100.0,-100.0,-100.0,-100.0,-100.0,-100.0,-100.0,-70.0,-100.0,-100.0,-100.0,-100.0,-100.0,-100.0,-100.0,-100.0,-55.0,-100.0,-77.0,-100.0,-100.0,-65.0,-69.0,-100.0,-89.0,-51.0,-50.0,-79.0,-100.0,-100.0,-81.0,-68.0,-70.0,-64.0,-70.0,-47.0,-58.0,-56.0,-77.0,-100.0,-100.0,-65.0,-69.0,-100.0,-88.0,-52.0,-50.0,-80.0,-100.0,-100.0,-79.0,-67.0,-70.0,-69.0,-70.0,-47.0,-59.0,-100.0,-83.0,-70.0,-83.0,-91.0,-100.0,-100.0,-100.0,-100.0,-100.0,-100.0,-81.0,-74.0,-100.0,-100.0,-74.0,-100.0,-71.0,-86.0,-100.0,-90.0,-100.0,-90.0,-100.0,-100.0,-100.0,-100.0,-100.0,-100.0,-100.0,-100.0,-100.0,-100.0,-100.0,-100.0,-100.0,-100.0,-89.0,-100.0,-100.0,-100.0,-100.0,-100.0,-100.0,-100.0,-100.0,-100.0,-85.0,-100.0,-100.0,-100.0,-100.0,-100.0,-100.0,-100.0,-100.0,-100.0,-85.0,-69.0,-65.0,-100.0,-100.0,-100.0,-88.0,-100.0,-100.0,-100.0,-100.0,-84.0,-100.0,-100.0,-100.0,-100.0,-66.0,-63.0,-76.0,-100.0,-100.0,-100.0,-71.0,-100.0,-85.0,-83.0,-65.0,-83.0,-100.0,-73.0,-100.0,-100.0,-100.0,-100.0,-100.0,-100.0,-100.0,-100.0
2021.01.30 160155,75.0,24.0,8.511206731896552,-35.81948231034483,-50.3043096637931,-4.826321376724138,8.66900863362069,0.10332534193275864,0.0038052270446551732,-0.006096287696724139,-0.001386348135344828,-1.062521997196921,1.5496281220995147,1.7501888172379856,1016.1395299137929,-100.0,-100.0,-100.0,-100.0,-100.0,-100.0,-100.0,-90.0,-75.0,-100.0,-100.0,-100.0,-100.0,-100.0,-100.0,-100.0,-100.0,-60.0,-100.0,-100.0,-100.0,-100.0,-69.0,-70.0,-100.0,-89.0,-46.0,-52.0,-100.0,-100.0,-100.0,-78.0,-67.0,-70.0,-71.0,-78.0,-51.0,-58.0,-60.0,-100.0,-100.0,-100.0,-68.0,-70.0,-100.0,-100.0,-45.0,-52.0,-78.0,-100.0,-100.0,-79.0,-67.0,-70.0,-71.0,-78.0,-51.0,-59.0,-100.0,-100.0,-78.0,-87.0,-87.0,-100.0,-86.0,-70.0,-100.0,-100.0,-100.0,-82.0,-78.0,-100.0,-100.0,-78.0,-100.0,-71.0,-100.0,-100.0,-100.0,-100.0,-100.0,-100.0,-100.0,-100.0,-100.0,-100.0,-100.0,-100.0,-100.0,-100.0,-100.0,-100.0,-100.0,-100.0,-100.0,-86.0,-100.0,-100.0,-100.0,-100.0,-100.0,-77.0,-100.0,-100.0,-100.0,-100.0,-100.0,-100.0,-100.0,-100.0,-100.0,-66.0,-100.0,-67.0,-100.0,-87.0,-100.0,-73.0,-100.0,-100.0,-100.0,-86.0,-100.0,-100.0,-100.0,-100.0,-100.0,-100.0,-100.0,-100.0,-100.0,-63.0,-70.0,-66.0,-100.0,-100.0,-100.0,-77.0,-100.0,-85.0,-78.0,-77.0,-78.0,-100.0,-72.0,-100.0,-100.0,-100.0,-100.0,-86.0,-100.0,-100.0,-100.0
2021.01.30 160206,76.0,24.0,14.781666416666669,-32.04611069444445,-50.002777092592595,-4.767577566666667,8.696848555555556,0.40727058233333335,0.001656666633333333,-0.0025321268460185187,0.001015959250370371,-1.067560503880183,1.4856795227086101,1.5471816349912573,1016.1232140740741,-100.0,-100.0,-100.0,-100.0,-100.0,-100.0,-90.0,-100.0,-100.0,-100.0,-100.0,-100.0,-100.0,-100.0,-100.0,-100.0,-100.0,-59.0,-100.0,-100.0,-100.0,-100.0,-100.0,-70.0,-100.0,-100.0,-47.0,-48.0,-100.0,-100.0,-100.0,-76.0,-63.0,-69.0,-64.0,-71.0,-55.0,-60.0,-59.0,-100.0,-100.0,-100.0,-100.0,-71.0,-100.0,-100.0,-46.0,-48.0,-100.0,-91.0,-100.0,-73.0,-62.0,-69.0,-64.0,-71.0,-53.0,-60.0,-100.0,-85.0,-78.0,-100.0,-91.0,-100.0,-90.0,-100.0,-89.0,-100.0,-100.0,-85.0,-82.0,-100.0,-100.0,-82.0,-100.0,-100.0,-100.0,-100.0,-100.0,-100.0,-100.0,-100.0,-100.0,-100.0,-100.0,-100.0,-100.0,-100.0,-100.0,-100.0,-100.0,-100.0,-100.0,-100.0,-100.0,-100.0,-100.0,-100.0,-100.0,-100.0,-100.0,-100.0,-100.0,-100.0,-100.0,-100.0,-100.0,-78.0,-100.0,-100.0,-78.0,-65.0,-100.0,-65.0,-100.0,-100.0,-100.0,-73.0,-100.0,-100.0,-100.0,-87.0,-100.0,-100.0,-100.0,-100.0,-100.0,-100.0,-100.0,-100.0,-100.0,-64.0,-73.0,-100.0,-100.0,-100.0,-100.0,-74.0,-100.0,-82.0,-69.0,-72.0,-69.0,-100.0,-74.0,-100.0,-100.0,-100.0,-100.0,-100.0,-80.0,-80.0,-100.0
2021.01.30 160216,77.0,24.0,14.9007076460177,-32.983539424778755,-42.86814110619469,-4.810966820353983,8.675623008849557,0.28404998183008845,0.0057773039476106194,-0.009951757141592922,-0.0011720232796460176,-1.0632275126676645,1.5122391913844422,1.5910525469653374,1016.1397197345133,-100.0,-100.0,-100.0,-100.0,-100.0,-100.0,-88.0,-100.0,-80.0,-87.0,-100.0,-100.0,-100.0,-100.0,-100.0,-100.0,-100.0,-59.0,-100.0,-78.0,-100.0,-100.0,-64.0,-72.0,-80.0,-100.0,-38.0,-49.0,-75.0,-100.0,-75.0,-78.0,-66.0,-69.0,-63.0,-74.0,-53.0,-59.0,-56.0,-100.0,-100.0,-100.0,-63.0,-72.0,-79.0,-100.0,-39.0,-49.0,-100.0,-100.0,-75.0,-77.0,-72.0,-69.0,-63.0,-74.0,-51.0,-59.0,-100.0,-83.0,-75.0,-100.0,-100.0,-100.0,-100.0,-81.0,-83.0,-100.0,-100.0,-81.0,-80.0,-100.0,-100.0,-79.0,-100.0,-71.0,-100.0,-100.0,-100.0,-100.0,-100.0,-100.0,-100.0,-100.0,-100.0,-100.0,-100.0,-100.0,-100.0,-100.0,-100.0,-100.0,-100.0,-100.0,-100.0,-100.0,-100.0,-100.0,-100.0,-100.0,-100.0,-100.0,-100.0,-100.0,-100.0,-100.0,-100.0,-80.0,-100.0,-100.0,-78.0,-60.0,-100.0,-60.0,-100.0,-89.0,-100.0,-100.0,-100.0,-100.0,-100.0,-100.0,-100.0,-100.0,-100.0,-100.0,-87.0,-100.0,-100.0,-100.0,-100.0,-64.0,-100.0,-100.0,-100.0,-100.0,-100.0,-71.0,-100.0,-81.0,-62.0,-69.0,-62.0,-100.0,-71.0,-100.0,-100.0,-86.0,-89.0,-100.0,-73.0,-63.0,-100.0
2021.01.30 160226,78.0,24.0,15.76655153448276,-40.75862006896552,-42.37551665517241,-5.354444721551725,8.352097474137931,-0.0531694136724138,0.002572964409051724,-0.008239582047500001,-0.002318444113965517,-1.0002886164804985,1.5809375510133545,1.7822749511948948,1016.1418774137932,-100.0,-100.0,-100.0,-100.0,-100.0,-100.0,-87.0,-88.0,-100.0,-100.0,-100.0,-100.0,-100.0,-100.0,-100.0,-100.0,-100.0,-60.0,-89.0,-100.0,-100.0,-100.0,-64.0,-70.0,-81.0,-100.0,-41.0,-43.0,-100.0,-100.0,-100.0,-74.0,-69.0,-67.0,-64.0,-74.0,-60.0,-60.0,-60.0,-100.0,-100.0,-100.0,-66.0,-70.0,-100.0,-100.0,-40.0,-43.0,-100.0,-100.0,-100.0,-74.0,-69.0,-67.0,-65.0,-74.0,-60.0,-61.0,-100.0,-84.0,-78.0,-85.0,-100.0,-88.0,-100.0,-74.0,-85.0,-100.0,-100.0,-100.0,-82.0,-100.0,-100.0,-81.0,-100.0,-71.0,-100.0,-100.0,-100.0,-100.0,-100.0,-100.0,-100.0,-100.0,-100.0,-100.0,-100.0,-100.0,-100.0,-100.0,-100.0,-100.0,-100.0,-100.0,-100.0,-100.0,-100.0,-100.0,-100.0,-100.0,-100.0,-82.0,-100.0,-100.0,-100.0,-100.0,-100.0,-79.0,-100.0,-100.0,-80.0,-58.0,-100.0,-58.0,-100.0,-89.0,-100.0,-72.0,-100.0,-100.0,-100.0,-83.0,-100.0,-100.0,-100.0,-100.0,-100.0,-100.0,-100.0,-100.0,-100.0,-59.0,-69.0,-100.0,-100.0,-100.0,-100.0,-76.0,-100.0,-80.0,-63.0,-65.0,-63.0,-100.0,-100.0,-87.0,-100.0,-100.0,-100.0,-100.0,-100.0,-100.0,-100.0
2021.01.30 160236,79.0,24.0,12.743242900900901,-40.903242675675685,-44.86540462162163,-5.152695081981983,8.48011148648649,0.15030006176756755,0.0033613109970270266,-0.007332678017207208,0.0007383489432432431,-1.0242991152110401,1.5416023494961026,1.7763766930983946,1016.127553153153,-100.0,-100.0,-100.0,-100.0,-100.0,-100.0,-90.0,-100.0,-100.0,-100.0,-100.0,-100.0,-100.0,-100.0,-74.0,-100.0,-100.0,-63.0,-100.0,-100.0,-100.0,-100.0,-64.0,-74.0,-100.0,-100.0,-34.0,-36.0,-77.0,-90.0,-100.0,-81.0,-66.0,-70.0,-63.0,-74.0,-51.0,-58.0,-62.0,-100.0,-100.0,-100.0,-66.0,-74.0,-100.0,-100.0,-35.0,-36.0,-100.0,-100.0,-100.0,-82.0,-74.0,-70.0,-63.0,-74.0,-54.0,-58.0,-100.0,-81.0,-87.0,-82.0,-100.0,-100.0,-100.0,-79.0,-100.0,-100.0,-100.0,-81.0,-80.0,-100.0,-100.0,-79.0,-100.0,-71.0,-100.0,-100.0,-100.0,-100.0,-100.0,-100.0,-100.0,-100.0,-100.0,-100.0,-100.0,-100.0,-100.0,-100.0,-100.0,-100.0,-100.0,-100.0,-100.0,-88.0,-100.0,-100.0,-100.0,-100.0,-100.0,-100.0,-100.0,-100.0,-100.0,-91.0,-100.0,-74.0,-100.0,-100.0,-66.0,-59.0,-100.0,-59.0,-100.0,-90.0,-100.0,-62.0,-100.0,-100.0,-100.0,-78.0,-100.0,-100.0,-87.0,-100.0,-100.0,-100.0,-100.0,-100.0,-100.0,-60.0,-63.0,-100.0,-100.0,-100.0,-100.0,-75.0,-100.0,-78.0,-62.0,-75.0,-63.0,-100.0,-74.0,-86.0,-100.0,-87.0,-100.0,-100.0,-66.0,-65.0,-100.0
2021.01.30 160246,80.0,24.0,10.225090710000002,-39.512181218181816,-45.482726527272725,-5.157354999999998,8.480477800000001,0.12165092560181816,0.0018149362983636368,-0.007903319022818184,0.0034855414970909092,-1.0238149713386189,1.5470131765712392,1.8071342533284969,1016.1215395454545,-100.0,-100.0,-100.0,-100.0,-100.0,-100.0,-100.0,-100.0,-100.0,-100.0,-100.0,-100.0,-100.0,-100.0,-77.0,-100.0,-100.0,-62.0,-100.0,-80.0,-100.0,-100.0,-65.0,-70.0,-100.0,-100.0,-34.0,-33.0,-100.0,-91.0,-100.0,-83.0,-67.0,-69.0,-64.0,-71.0,-50.0,-64.0,-59.0,-78.0,-100.0,-100.0,-66.0,-70.0,-100.0,-100.0,-34.0,-33.0,-100.0,-90.0,-100.0,-83.0,-65.0,-69.0,-64.0,-71.0,-50.0,-64.0,-100.0,-100.0,-83.0,-86.0,-91.0,-100.0,-100.0,-100.0,-100.0,-100.0,-100.0,-100.0,-79.0,-100.0,-100.0,-79.0,-100.0,-73.0,-100.0,-100.0,-100.0,-100.0,-100.0,-100.0,-100.0,-100.0,-100.0,-100.0,-100.0,-100.0,-100.0,-100.0,-100.0,-100.0,-100.0,-100.0,-100.0,-100.0,-100.0,-100.0,-100.0,-100.0,-100.0,-100.0,-100.0,-100.0,-100.0,-100.0,-100.0,-81.0,-100.0,-100.0,-80.0,-55.0,-100.0,-55.0,-100.0,-100.0,-100.0,-62.0,-100.0,-100.0,-100.0,-87.0,-100.0,-100.0,-100.0,-100.0,-100.0,-100.0,-100.0,-88.0,-100.0,-63.0,-63.0,-100.0,-100.0,-100.0,-100.0,-74.0,-100.0,-76.0,-61.0,-75.0,-61.0,-100.0,-81.0,-100.0,-100.0,-100.0,-100.0,-87.0,-100.0,-87.0,-100.0
2021.01.30 160255,81.0,24.0,5.705945864864865,-37.910269846846845,-50.68270198198197,-4.9664162,8.58552432882883,0.26384476973513515,0.00425834721945946,-0.003915134451441441,-0.0006429771902702696,-1.045489433649424,1.5176749648274601,1.8001570658640818,1016.1155762162163,-100.0,-100.0,-100.0,-100.0,-100.0,-100.0,-89.0,-100.0,-100.0,-100.0,-100.0,-100.0,-100.0,-100.0,-76.0,-100.0,-100.0,-59.0,-100.0,-78.0,-100.0,-100.0,-67.0,-69.0,-100.0,-100.0,-30.0,-33.0,-100.0,-100.0,-100.0,-82.0,-66.0,-68.0,-66.0,-73.0,-49.0,-67.0,-62.0,-78.0,-100.0,-100.0,-67.0,-70.0,-100.0,-100.0,-32.0,-33.0,-100.0,-90.0,-100.0,-82.0,-66.0,-68.0,-72.0,-73.0,-50.0,-67.0,-100.0,-86.0,-85.0,-88.0,-91.0,-100.0,-90.0,-80.0,-86.0,-100.0,-100.0,-100.0,-81.0,-100.0,-100.0,-81.0,-100.0,-76.0,-100.0,-100.0,-100.0,-100.0,-100.0,-100.0,-100.0,-100.0,-100.0,-100.0,-100.0,-100.0,-100.0,-100.0,-100.0,-100.0,-100.0,-100.0,-100.0,-90.0,-100.0,-100.0,-100.0,-100.0,-100.0,-100.0,-100.0,-100.0,-100.0,-100.0,-100.0,-100.0,-100.0,-100.0,-100.0,-69.0,-100.0,-70.0,-100.0,-100.0,-100.0,-70.0,-100.0,-100.0,-100.0,-83.0,-100.0,-100.0,-100.0,-100.0,-100.0,-100.0,-100.0,-100.0,-100.0,-67.0,-72.0,-100.0,-100.0,-100.0,-100.0,-77.0,-100.0,-83.0,-71.0,-78.0,-71.0,-100.0,-78.0,-100.0,-100.0,-100.0,-100.0,-100.0,-100.0,-100.0,-100.0
2021.01.30 160306,82.0,24.0,10.111735352066114,-37.00066065289256,-60.801817280991735,-4.853907365289256,8.65682711983471,0.35136477652396697,0.002117339794876033,-0.005921288510578511,0.005660928748760331,-1.0584531697359951,1.4985762667064824,1.6629668533309432,1016.1082871900827,-100.0,-100.0,-100.0,-100.0,-100.0,-100.0,-100.0,-100.0,-100.0,-100.0,-100.0,-100.0,-88.0,-100.0,-100.0,-100.0,-100.0,-65.0,-100.0,-77.0,-100.0,-100.0,-64.0,-68.0,-100.0,-100.0,-27.0,-38.0,-100.0,-88.0,-100.0,-81.0,-64.0,-69.0,-69.0,-76.0,-59.0,-60.0,-100.0,-74.0,-100.0,-100.0,-64.0,-68.0,-100.0,-100.0,-26.0,-38.0,-100.0,-88.0,-100.0,-81.0,-64.0,-69.0,-70.0,-76.0,-59.0,-60.0,-100.0,-85.0,-86.0,-100.0,-100.0,-100.0,-100.0,-83.0,-100.0,-100.0,-100.0,-100.0,-82.0,-100.0,-100.0,-82.0,-100.0,-78.0,-90.0,-100.0,-100.0,-100.0,-100.0,-100.0,-100.0,-100.0,-100.0,-100.0,-100.0,-100.0,-100.0,-100.0,-100.0,-100.0,-100.0,-100.0,-100.0,-100.0,-100.0,-100.0,-100.0,-100.0,-100.0,-100.0,-100.0,-100.0,-100.0,-100.0,-100.0,-81.0,-100.0,-100.0,-100.0,-100.0,-100.0,-100.0,-100.0,-100.0,-100.0,-67.0,-100.0,-100.0,-100.0,-86.0,-100.0,-100.0,-100.0,-100.0,-100.0,-100.0,-100.0,-100.0,-100.0,-63.0,-73.0,-100.0,-100.0,-100.0,-100.0,-79.0,-100.0,-80.0,-73.0,-81.0,-72.0,-100.0,-100.0,-100.0,-89.0,-100.0,-90.0,-100.0,-100.0,-100.0,-100.0
2021.01.30 160316,83.0,24.0,16.62358953846154,-36.16820458974359,-56.28564028205128,-5.060821662393162,8.531926615384616,0.03806283057435898,0.003767284284871794,0.0017130384507692315,-0.001251725506837607,-1.035243411349435,1.5631116170149584,1.6382011684597049,1016.1260957264958,-100.0,-100.0,-100.0,-100.0,-100.0,-100.0,-100.0,-100.0,-100.0,-100.0,-100.0,-100.0,-100.0,-100.0,-100.0,-100.0,-100.0,-61.0,-100.0,-100.0,-100.0,-100.0,-63.0,-70.0,-100.0,-100.0,-32.0,-43.0,-100.0,-100.0,-100.0,-83.0,-64.0,-69.0,-67.0,-70.0,-58.0,-66.0,-62.0,-100.0,-100.0,-100.0,-62.0,-70.0,-80.0,-100.0,-32.0,-43.0,-82.0,-100.0,-100.0,-84.0,-65.0,-69.0,-67.0,-70.0,-58.0,-66.0,-100.0,-85.0,-87.0,-83.0,-89.0,-100.0,-89.0,-100.0,-100.0,-100.0,-100.0,-81.0,-85.0,-100.0,-100.0,-84.0,-100.0,-100.0,-100.0,-100.0,-100.0,-100.0,-100.0,-100.0,-100.0,-100.0,-100.0,-100.0,-100.0,-100.0,-100.0,-100.0,-100.0,-100.0,-100.0,-100.0,-100.0,-100.0,-100.0,-100.0,-100.0,-100.0,-100.0,-100.0,-100.0,-100.0,-100.0,-90.0,-100.0,-100.0,-100.0,-100.0,-100.0,-74.0,-100.0,-73.0,-100.0,-100.0,-100.0,-69.0,-100.0,-100.0,-100.0,-90.0,-100.0,-100.0,-100.0,-100.0,-100.0,-100.0,-100.0,-100.0,-100.0,-100.0,-67.0,-100.0,-100.0,-100.0,-100.0,-79.0,-100.0,-86.0,-75.0,-80.0,-75.0,-100.0,-81.0,-100.0,-90.0,-100.0,-91.0,-85.0,-100.0,-100.0,-100.0
2021.01.30 160326,84.0,24.0,16.117837527027024,-34.75081040540541,-49.08810754054055,-4.957939152252252,8.596827031531532,0.0560821120864865,0.0038015740714414407,-0.006848388141801802,0.002284773781441442,-1.0474065402606587,1.5594723836795703,1.6310764271933753,1016.126745315315,-100.0,-100.0,-100.0,-100.0,-100.0,-100.0,-100.0,-100.0,-100.0,-100.0,-100.0,-100.0,-100.0,-100.0,-100.0,-100.0,-100.0,-67.0,-100.0,-76.0,-100.0,-100.0,-70.0,-62.0,-100.0,-100.0,-34.0,-45.0,-100.0,-89.0,-100.0,-82.0,-65.0,-69.0,-68.0,-67.0,-53.0,-64.0,-69.0,-77.0,-100.0,-100.0,-70.0,-63.0,-100.0,-100.0,-34.0,-45.0,-100.0,-89.0,-79.0,-83.0,-66.0,-70.0,-70.0,-67.0,-53.0,-64.0,-100.0,-100.0,-85.0,-88.0,-88.0,-100.0,-88.0,-100.0,-100.0,-100.0,-100.0,-100.0,-86.0,-100.0,-100.0,-85.0,-100.0,-80.0,-100.0,-100.0,-100.0,-100.0,-100.0,-100.0,-100.0,-100.0,-100.0,-100.0,-100.0,-100.0,-100.0,-100.0,-100.0,-100.0,-100.0,-100.0,-100.0,-92.0,-100.0,-100.0,-100.0,-100.0,-100.0,-100.0,-100.0,-100.0,-100.0,-100.0,-100.0,-100.0,-100.0,-100.0,-100.0,-76.0,-100.0,-76.0,-100.0,-100.0,-100.0,-65.0,-100.0,-100.0,-100.0,-100.0,-100.0,-100.0,-100.0,-100.0,-100.0,-100.0,-100.0,-100.0,-100.0,-73.0,-67.0,-100.0,-100.0,-100.0,-100.0,-75.0,-100.0,-85.0,-74.0,-74.0,-74.0,-100.0,-100.0,-100.0,-91.0,-100.0,-88.0,-100.0,-100.0,-100.0,-100.0
2021.01.30 160336,85.0,24.0,14.312972675675677,-34.312432,-51.816215612612595,-4.968616328828829,8.588932418918919,0.18759466588108106,-0.0006505880378378383,-0.005764240077837836,0.004254951568828829,-1.0457374330039497,1.5331676307025257,1.6323730784493524,1016.1329133333332,-100.0,-100.0,-100.0,-100.0,-100.0,-100.0,-89.0,-100.0,-100.0,-100.0,-100.0,-100.0,-100.0,-100.0,-100.0,-100.0,-100.0,-100.0,-100.0,-100.0,-100.0,-100.0,-100.0,-63.0,-100.0,-100.0,-42.0,-50.0,-100.0,-100.0,-73.0,-84.0,-66.0,-66.0,-100.0,-66.0,-56.0,-68.0,-100.0,-76.0,-100.0,-100.0,-100.0,-63.0,-100.0,-100.0,-41.0,-50.0,-81.0,-100.0,-77.0,-83.0,-66.0,-66.0,-73.0,-66.0,-56.0,-68.0,-100.0,-83.0,-85.0,-100.0,-100.0,-100.0,-100.0,-100.0,-88.0,-100.0,-100.0,-100.0,-88.0,-100.0,-100.0,-87.0,-100.0,-100.0,-100.0,-100.0,-100.0,-100.0,-100.0,-100.0,-100.0,-100.0,-100.0,-100.0,-100.0,-100.0,-100.0,-100.0,-100.0,-100.0,-100.0,-100.0,-100.0,-100.0,-100.0,-100.0,-100.0,-100.0,-100.0,-84.0,-100.0,-100.0,-100.0,-100.0,-100.0,-100.0,-100.0,-100.0,-100.0,-100.0,-100.0,-100.0,-100.0,-100.0,-100.0,-71.0,-100.0,-100.0,-100.0,-100.0,-100.0,-100.0,-100.0,-100.0,-100.0,-100.0,-100.0,-100.0,-100.0,-80.0,-71.0,-83.0,-100.0,-100.0,-100.0,-81.0,-100.0,-86.0,-77.0,-78.0,-77.0,-100.0,-100.0,-100.0,-100.0,-100.0,-100.0,-100.0,-100.0,-100.0,-100.0
2021.01.30 160346,86.0,24.0,20.214106946428576,-33.72321375892857,-48.842142062499995,-4.876496469642857,8.637709808035714,0.36298916299999995,-0.0022866869032142855,0.001076300948839286,-0.00030717790910714276,-1.0553810905132974,1.4967985887612616,1.4850111891116415,1016.126170625,-100.0,-100.0,-100.0,-87.0,-100.0,-100.0,-100.0,-100.0,-79.0,-100.0,-100.0,-100.0,-100.0,-100.0,-100.0,-100.0,-100.0,-100.0,-100.0,-78.0,-100.0,-100.0,-68.0,-66.0,-81.0,-100.0,-38.0,-52.0,-78.0,-100.0,-100.0,-83.0,-66.0,-68.0,-72.0,-100.0,-57.0,-62.0,-70.0,-79.0,-100.0,-100.0,-67.0,-67.0,-100.0,-100.0,-37.0,-53.0,-81.0,-100.0,-78.0,-83.0,-67.0,-68.0,-72.0,-100.0,-58.0,-62.0,-100.0,-100.0,-88.0,-89.0,-100.0,-100.0,-100.0,-100.0,-87.0,-100.0,-100.0,-100.0,-88.0,-100.0,-100.0,-86.0,-100.0,-100.0,-100.0,-100.0,-100.0,-100.0,-100.0,-100.0,-100.0,-100.0,-100.0,-100.0,-100.0,-100.0,-100.0,-100.0,-100.0,-100.0,-100.0,-100.0,-100.0,-100.0,-100.0,-100.0,-100.0,-100.0,-100.0,-100.0,-100.0,-100.0,-100.0,-100.0,-100.0,-100.0,-100.0,-100.0,-100.0,-68.0,-100.0,-67.0,-100.0,-100.0,-100.0,-65.0,-100.0,-100.0,-100.0,-100.0,-100.0,-100.0,-100.0,-100.0,-100.0,-100.0,-100.0,-100.0,-100.0,-82.0,-65.0,-100.0,-100.0,-100.0,-100.0,-81.0,-100.0,-86.0,-74.0,-83.0,-74.0,-100.0,-86.0,-100.0,-100.0,-100.0,-100.0,-100.0,-100.0,-100.0,-100.0
2021.01.30 160356,87.0,24.0,20.938434539130434,-36.78782577391304,-48.03234714782608,-4.8840915956521735,8.629278743478261,0.3953051808086957,0.0037004091042608695,-0.0031095962367826083,0.0012388613615652172,-1.0542003984036652,1.4901417825532997,1.4989108313684878,1016.1271920869565,-100.0,-100.0,-100.0,-100.0,-100.0,-100.0,-100.0,-100.0,-100.0,-100.0,-100.0,-100.0,-100.0,-100.0,-100.0,-100.0,-100.0,-70.0,-100.0,-100.0,-100.0,-100.0,-70.0,-72.0,-82.0,-100.0,-39.0,-49.0,-100.0,-89.0,-100.0,-82.0,-66.0,-65.0,-100.0,-64.0,-59.0,-63.0,-100.0,-100.0,-100.0,-100.0,-100.0,-72.0,-83.0,-100.0,-39.0,-49.0,-100.0,-91.0,-100.0,-82.0,-66.0,-65.0,-100.0,-64.0,-61.0,-63.0,-100.0,-100.0,-85.0,-100.0,-100.0,-100.0,-100.0,-80.0,-100.0,-100.0,-100.0,-100.0,-86.0,-100.0,-100.0,-86.0,-100.0,-81.0,-100.0,-100.0,-100.0,-100.0,-100.0,-100.0,-100.0,-100.0,-100.0,-100.0,-100.0,-100.0,-100.0,-100.0,-100.0,-100.0,-100.0,-100.0,-100.0,-100.0,-100.0,-100.0,-100.0,-100.0,-100.0,-100.0,-100.0,-100.0,-100.0,-100.0,-100.0,-83.0,-100.0,-100.0,-83.0,-76.0,-100.0,-75.0,-100.0,-100.0,-100.0,-70.0,-100.0,-100.0,-100.0,-100.0,-100.0,-100.0,-100.0,-100.0,-100.0,-100.0,-100.0,-100.0,-100.0,-78.0,-68.0,-100.0,-100.0,-100.0,-100.0,-100.0,-100.0,-89.0,-78.0,-100.0,-78.0,-100.0,-100.0,-100.0,-100.0,-100.0,-100.0,-100.0,-100.0,-100.0,-100.0
2021.01.30 160406,88.0,24.0,18.38781802727273,-35.365090563636365,-47.518908454545446,-4.776012325454546,8.69698555909091,0.4525614725454546,0.003947411045909091,-0.004793459394363638,0.00506823787109091,-1.0664415261962197,1.4763272545554422,1.5078898083079946,1016.1349915454546,-100.0,-100.0,-100.0,-91.0,-100.0,-100.0,-100.0,-100.0,-74.0,-100.0,-100.0,-100.0,-100.0,-100.0,-100.0,-100.0,-100.0,-75.0,-100.0,-100.0,-100.0,-100.0,-71.0,-74.0,-100.0,-100.0,-41.0,-52.0,-100.0,-89.0,-100.0,-83.0,-68.0,-66.0,-72.0,-68.0,-58.0,-68.0,-73.0,-100.0,-100.0,-100.0,-70.0,-74.0,-100.0,-100.0,-43.0,-52.0,-100.0,-90.0,-100.0,-83.0,-67.0,-67.0,-72.0,-68.0,-58.0,-68.0,-100.0,-100.0,-89.0,-100.0,-89.0,-100.0,-91.0,-100.0,-88.0,-100.0,-100.0,-100.0,-88.0,-100.0,-100.0,-88.0,-100.0,-80.0,-100.0,-100.0,-100.0,-100.0,-100.0,-100.0,-100.0,-100.0,-100.0,-100.0,-100.0,-100.0,-100.0,-100.0,-100.0,-100.0,-100.0,-100.0,-100.0,-91.0,-100.0,-100.0,-100.0,-100.0,-100.0,-100.0,-100.0,-100.0,-100.0,-100.0,-100.0,-100.0,-100.0,-100.0,-100.0,-77.0,-100.0,-78.0,-100.0,-100.0,-100.0,-70.0,-100.0,-100.0,-100.0,-100.0,-100.0,-100.0,-100.0,-100.0,-90.0,-100.0,-100.0,-100.0,-100.0,-77.0,-70.0,-100.0,-100.0,-100.0,-100.0,-100.0,-100.0,-100.0,-77.0,-100.0,-77.0,-100.0,-100.0,-100.0,-100.0,-100.0,-92.0,-79.0,-100.0,-100.0,-100.0
2021.01.30 160415,89.0,24.0,22.772812210937502,-33.000937171874995,-48.17203065625,-4.5969141140625,8.78276119921875,0.4487207656875,0.006548360999218751,-0.0064838381568749996,0.0012499831084375004,-1.0862100003287196,1.4734044205397367,1.3801068253815174,1016.1357443749998,-100.0,-100.0,-100.0,-100.0,-100.0,-100.0,-100.0,-100.0,-81.0,-100.0,-100.0,-100.0,-100.0,-100.0,-100.0,-100.0,-100.0,-71.0,-85.0,-80.0,-100.0,-100.0,-69.0,-72.0,-100.0,-100.0,-41.0,-57.0,-76.0,-100.0,-100.0,-88.0,-68.0,-66.0,-71.0,-72.0,-100.0,-62.0,-74.0,-80.0,-100.0,-100.0,-70.0,-73.0,-100.0,-100.0,-40.0,-57.0,-78.0,-100.0,-100.0,-88.0,-67.0,-66.0,-71.0,-72.0,-100.0,-62.0,-100.0,-100.0,-90.0,-89.0,-100.0,-87.0,-100.0,-100.0,-100.0,-100.0,-100.0,-100.0,-86.0,-100.0,-100.0,-86.0,-100.0,-82.0,-100.0,-100.0,-100.0,-100.0,-100.0,-100.0,-100.0,-100.0,-100.0,-100.0,-100.0,-100.0,-100.0,-100.0,-100.0,-100.0,-100.0,-100.0,-100.0,-100.0,-100.0,-100.0,-100.0,-100.0,-100.0,-100.0,-100.0,-100.0,-100.0,-92.0,-100.0,-100.0,-100.0,-100.0,-100.0,-79.0,-100.0,-79.0,-100.0,-100.0,-100.0,-70.0,-100.0,-100.0,-100.0,-100.0,-100.0,-100.0,-100.0,-100.0,-100.0,-100.0,-100.0,-100.0,-100.0,-100.0,-69.0,-100.0,-100.0,-100.0,-100.0,-100.0,-100.0,-100.0,-78.0,-100.0,-78.0,-100.0,-100.0,-100.0,-100.0,-100.0,-100.0,-100.0,-100.0,-100.0,-100.0
