Time,Mag_x,Mag_y,Mag_z,Acc_x,Acc_y,Acc_z,Gyro_x,Gyro_y,Gyro_z,Orn_x,Orn_y,Orn_z,Pressure,True_X,True_Y,00:1a:be:a0:de:39,00:1a:be:a0:de:52,00:1a:be:a0:de:64,00:1a:be:a0:de:72,00:1a:be:a0:de:73,00:1a:be:a0:de:89,00:1a:be:a0:de:90,00:1a:be:a0:de:91,00:1a:be:a0:de:92,00:1a:be:a0:de:93,00:1a:be:a0:de:94,00:1a:be:a0:de:95,00:1a:be:a0:de:96,00:1a:be:a0:df:01,00:1a:be:a0:df:02,00:1a:be:a0:df:03,00:1a:be:a0:df:08,00:1a:be:a0:df:11,00:1a:be:a0:df:20,00:1a:be:a0:df:22,00:1a:be:a0:df:28,00:1a:be:a0:df:29,00:1a:be:a0:df:36,00:1a:be:a0:df:45,00:1a:be:a0:df:46,00:1a:be:a0:df:47,00:1a:be:a0:df:48,00:1a:be:a0:df:49,00:1a:be:a0:df:50,00:1a:be:a0:df:51,00:1a:be:a0:df:52,00:1a:be:a0:df:56,00:1a:be:a0:df:57,00:1a:be:a0:df:58,00:1a:be:a0:df:64,00:1a:be:a0:df:67,00:1a:be:a0:df:73,00:1a:be:a0:df:75,00:1a:be:a0:de:40,00:1a:be:a0:de:43,00:1a:be:a0:de:53,00:1a:be:a0:de:56,00:1a:be:a0:de:80,00:1a:be:a0:df:12,00:1a:be:a0:df:68,00:1a:be:a0:de:66,00:1a:be:a0:de:37,00:1a:be:a0:df:34,00:1a:be:a0:de:78,00:1a:be:a0:de:84,00:1a:be:a0:df:13,00:1a:be:a0:df:40,00:1a:be:a0:df:69,00:1a:be:a0:de:44,00:1a:be:a0:de:57,00:1a:be:a0:de:67,00:1a:be:a0:de:82,00:1a:be:a0:df:23,00:1a:be:a0:de:81,00:1a:be:a0:df:37,00:1a:be:a0:de:65,00:1a:be:a0:df:21,00:1a:be:a0:df:38,00:1a:be:a0:de:68,00:1a:be:a0:df:06,00:1a:be:a0:df:24,00:1a:be:a0:df:62,00:1a:be:a0:de:32,00:1a:be:a0:de:46,00:1a:be:a0:de:58,00:1a:be:a0:de:79,00:1a:be:a0:df:14,00:1a:be:a0:df:15,00:1a:be:a0:df:35,00:1a:be:a0:df:70,00:1a:be:a0:df:71,00:1a:be:a0:de:05,00:1a:be:a0:de:33,00:1a:be:a0:de:04,00:1a:be:a0:de:83,00:1a:be:a0:df:39,00:1a:be:a0:df:09,00:1a:be:a0:df:65,00:1a:be:a0:de:34,00:1a:be:a0:de:41,00:1a:be:a0:de:49,00:1a:be:a0:de:54,00:1a:be:a0:de:88,00:1a:be:a0:de:97,00:1a:be:a0:df:44,00:1a:be:a0:df:53,00:1a:be:a0:df:63,00:1a:be:a0:de:36,00:1a:be:a0:de:50,00:1a:be:a0:de:70,00:1a:be:a0:df:07,00:1a:be:a0:df:10,00:1a:be:a0:df:26,00:1a:be:a0:de:31,00:1a:be:a0:de:74,00:1a:be:a0:de:86,00:1a:be:a0:df:30,00:1a:be:a0:df:42,00:1a:be:a0:de:76,00:1a:be:a0:df:32,00:1a:be:a0:de:08,00:1a:be:a0:de:12,00:1a:be:a0:de:69,00:1a:be:a0:df:25,00:1a:be:a0:de:85,00:1a:be:a0:df:41,00:1a:be:a0:de:62,00:1a:be:a0:df:18,00:1a:be:a0:de:87,00:1a:be:a0:de:98,00:1a:be:a0:df:43,00:1a:be:a0:df:54,00:1a:be:a0:de:71,00:1a:be:a0:de:75,00:1a:be:a0:df:27,00:1a:be:a0:df:31,00:1a:be:a0:de:17,00:1a:be:a0:df:04,00:1a:be:a0:df:59,00:1a:be:a0:de:15,00:1a:be:a0:de:63,00:1a:be:a0:df:05,00:1a:be:a0:df:19,00:1a:be:a0:df:60,00:1a:be:a0:de:99,00:1a:be:a0:df:55,00:1a:be:a0:de:16,00:1a:be:a0:de:77,00:1a:be:a0:de:02,00:1a:be:a0:de:27,00:1a:be:a0:de:30,00:1a:be:a0:df:33,00:1a:be:a0:de:26,00:1a:be:a0:de:03,00:1a:be:a0:de:21,00:1a:be:a0:de:25,00:1a:be:a0:de:01
2021.05.19 17:37:43,32.82,-13.32,-26.34,-0.48123455,0.93134445,9.543288,0.003665192,0.09040806,0.103847094,-0.097160824,0.050383814,-1.89428997,1004.03784,124.0,47.0,-85.933828985151,-74.05882451999926,-91.97188122059033,-81.86200924780883,-76.7500857485512,-47.41231813171212,-51.724648830421785,-56.76445579442946,-58.62524060030493,-62.58608625738012,-85.06228656656208,-75.16659953838357,-81.56749310733682,-75.57207495413903,-84.4835652274667,-82.93861998883426,-93.03831285644662,-66.90124128975457,-80.45797561384407,-86.55598211971805,-81.13989865783425,-75.2827535081928,-90.49854205550098,-53.848997410136576,-59.482001535913525,-60.10251994357302,-69.28231305015862,-70.26088426529485,-83.0710751385417,-69.51328430706424,-74.66493889610882,-71.75905600537581,-92.7145355573506,-80.89793631968699,-91.4821074015257,-78.98453415108463,-84.36608671789124,-76.18681820814052,,,,,,,,,,-91.09063894939543,,,,,,-93.90829555779642,,,,,,-93.05738073749215,,,,-93.03114856732066,-94.73016957522702,,,,,,,,,,,,,,,,,,,,,,,,,-94.21674089299789,,,-92.73150068107937,,,,,,,,,,,-93.37054720060812,,,,,,-94.59136788832532,,,-91.55207727987934,,,,-94.75566695390955,,,,-93.90770874850169,,,,,,,,,,-91.5798304860765,,,,,,,,,-94.50217975852414,,
2021.05.19 17:37:43,33.0,-13.559999,-26.4,0.090979666,1.3311762,9.61272,-0.07696902,-0.13622294,0.2180789,-0.137599468,-0.009464226,-1.858914971,1004.03784,123.98772237534453,47.012277624655475,-85.933828985151,-74.05882451999926,-91.97188122059033,-81.86200924780883,-76.7500857485512,-47.41231813171212,-51.724648830421785,-56.76445579442946,-58.62524060030493,-62.58608625738012,-85.06228656656208,-75.16659953838357,-81.56749310733682,-75.57207495413903,-84.4835652274667,-82.93861998883426,-93.03831285644662,-66.90124128975457,-80.45797561384407,-86.55598211971805,-81.13989865783425,-75.2827535081928,-90.49854205550098,-53.848997410136576,-59.482001535913525,-60.10251994357302,-69.28231305015862,-70.26088426529485,-83.0710751385417,-69.51328430706424,-74.66493889610882,-71.75905600537581,-92.7145355573506,-80.89793631968699,-91.4821074015257,-78.98453415108463,-84.36608671789124,-76.18681820814052,,,,,,,,,,-91.09063894939543,,,,,,-93.90829555779642,,,,,,-93.05738073749215,,,,-93.03114856732066,-94.73016957522702,,,,,,,,,,,,,,,,,,,,,,,,,-94.21674089299789,,,-92.73150068107937,,,,,,,,,,,-93.37054720060812,,,,,,-94.59136788832532,,,-91.55207727987934,,,,-94.75566695390955,,,,-93.90770874850169,,,,,,,,,,-91.5798304860765,,,,,,,,,-94.50217975852414,,
2021.05.19 17:37:43,33.12,-13.44,-26.34,-0.5386954,1.2904748,9.31105,-0.001221731,-0.06414085,0.1337795,-0.137491673,0.057791069,-1.861783862,1004.03784,123.97544475068905,47.02455524931095,-85.933828985151,-74.05882451999926,-91.97188122059033,-81.86200924780883,-76.7500857485512,-47.41231813171212,-51.724648830421785,-56.76445579442946,-58.62524060030493,-62.58608625738012,-85.06228656656208,-75.16659953838357,-81.56749310733682,-75.57207495413903,-84.4835652274667,-82.93861998883426,-93.03831285644662,-66.90124128975457,-80.45797561384407,-86.55598211971805,-81.13989865783425,-75.2827535081928,-90.49854205550098,-53.848997410136576,-59.482001535913525,-60.10251994357302,-69.28231305015862,-70.26088426529485,-83.0710751385417,-69.51328430706424,-74.66493889610882,-71.75905600537581,-92.7145355573506,-80.89793631968699,-91.4821074015257,-78.98453415108463,-84.36608671789124,-76.18681820814052,,,,,,,,,,-91.09063894939543,,,,,,-93.90829555779642,,,,,,-93.05738073749215,,,,-93.03114856732066,-94.73016957522702,,,,,,,,,,,,,,,,,,,,,,,,,-94.21674089299789,,,-92.73150068107937,,,,,,,,,,,-93.37054720060812,,,,,,-94.59136788832532,,,-91.55207727987934,,,,-94.75566695390955,,,,-93.90770874850169,,,,,,,,,,-91.5798304860765,,,,,,,,,-94.50217975852414,,
2021.05.19 17:37:43,33.059998,-13.2,-26.099998,-0.50757074,1.3599066,9.502586,0.015271631,-0.15332718,0.08002335,-0.141944319,0.053363245,-1.851906538,1004.0923,123.96316712603358,47.036832873966425,-85.933828985151,-74.05882451999926,-91.97188122059033,-81.86200924780883,-76.7500857485512,-47.41231813171212,-51.724648830421785,-56.76445579442946,-58.62524060030493,-62.58608625738012,-85.06228656656208,-75.16659953838357,-81.56749310733682,-75.57207495413903,-84.4835652274667,-82.93861998883426,-93.03831285644662,-66.90124128975457,-80.45797561384407,-86.55598211971805,-81.13989865783425,-75.2827535081928,-90.49854205550098,-53.848997410136576,-59.482001535913525,-60.10251994357302,-69.28231305015862,-70.26088426529485,-83.0710751385417,-69.51328430706424,-74.66493889610882,-71.75905600537581,-92.7145355573506,-80.89793631968699,-91.4821074015257,-78.98453415108463,-84.36608671789124,-76.18681820814052,,,,,,,,,,-91.09063894939543,,,,,,-93.90829555779642,,,,,,-93.05738073749215,,,,-93.03114856732066,-94.73016957522702,,,,,,,,,,,,,,,,,,,,,,,,,-94.21674089299789,,,-92.73150068107937,,,,,,,,,,,-93.37054720060812,,,,,,-94.59136788832532,,,-91.55207727987934,,,,-94.75566695390955,,,,-93.90770874850169,,,,,,,,,,-91.5798304860765,,,,,,,,,-94.50217975852414,,
2021.05.19 17:37:43,32.7,-13.679999,-25.619999,-0.63206923,1.661576,9.392453,-0.007330383,-0.14355333,0.05497787,-0.174706757,0.067194127,-1.84360218,1004.0923,123.9508895013781,47.0491104986219,-85.933828985151,-74.05882451999926,-91.97188122059033,-81.86200924780883,-76.7500857485512,-47.41231813171212,-51.724648830421785,-56.76445579442946,-58.62524060030493,-62.58608625738012,-85.06228656656208,-75.16659953838357,-81.56749310733682,-75.57207495413903,-84.4835652274667,-82.93861998883426,-93.03831285644662,-66.90124128975457,-80.45797561384407,-86.55598211971805,-81.13989865783425,-75.2827535081928,-90.49854205550098,-53.848997410136576,-59.482001535913525,-60.10251994357302,-69.28231305015862,-70.26088426529485,-83.0710751385417,-69.51328430706424,-74.66493889610882,-71.75905600537581,-92.7145355573506,-80.89793631968699,-91.4821074015257,-78.98453415108463,-84.36608671789124,-76.18681820814052,,,,,,,,,,-91.09063894939543,,,,,,-93.90829555779642,,,,,,-93.05738073749215,,,,-93.03114856732066,-94.73016957522702,,,,,,,,,,,,,,,,,,,,,,,,,-94.21674089299789,,,-92.73150068107937,,,,,,,,,,,-93.37054720060812,,,,,,-94.59136788832532,,,-91.55207727987934,,,,-94.75566695390955,,,,-93.90770874850169,,,,,,,,,,-91.5798304860765,,,,,,,,,-94.50217975852414,,
2021.05.19 17:37:43,32.76,-13.92,-25.619999,-0.6679823,1.8267759,9.358934,-0.040317107,-0.1020145,-0.02076942,-0.192289725,0.07125292,-1.834620118,1004.0923,123.93861187672263,47.061388123277375,-85.933828985151,-74.05882451999926,-91.97188122059033,-81.86200924780883,-76.7500857485512,-47.41231813171212,-51.724648830421785,-56.76445579442946,-58.62524060030493,-62.58608625738012,-85.06228656656208,-75.16659953838357,-81.56749310733682,-75.57207495413903,-84.4835652274667,-82.93861998883426,-93.03831285644662,-66.90124128975457,-80.45797561384407,-86.55598211971805,-81.13989865783425,-75.2827535081928,-90.49854205550098,-53.848997410136576,-59.482001535913525,-60.10251994357302,-69.28231305015862,-70.26088426529485,-83.0710751385417,-69.51328430706424,-74.66493889610882,-71.75905600537581,-92.7145355573506,-80.89793631968699,-91.4821074015257,-78.98453415108463,-84.36608671789124,-76.18681820814052,,,,,,,,,,-91.09063894939543,,,,,,-93.90829555779642,,,,,,-93.05738073749215,,,,-93.03114856732066,-94.73016957522702,,,,,,,,,,,,,,,,,,,,,,,,,-94.21674089299789,,,-92.73150068107937,,,,,,,,,,,-93.37054720060812,,,,,,-94.59136788832532,,,-91.55207727987934,,,,-94.75566695390955,,,,-93.90770874850169,,,,,,,,,,-91.5798304860765,,,,,,,,,-94.50217975852414,,
2021.05.19 17:37:43,32.219997,-13.679999,-25.92,-0.94810385,1.7860745,9.842564,-0.06841691,-0.08002335,-0.09896017,-0.178701431,0.09603063,-1.845144749,1004.0923,123.92633425206715,47.07366574793285,-85.933828985151,-74.05882451999926,-91.97188122059033,-81.86200924780883,-76.7500857485512,-47.41231813171212,-51.724648830421785,-56.76445579442946,-58.62524060030493,-62.58608625738012,-85.06228656656208,-75.16659953838357,-81.56749310733682,-75.57207495413903,-84.4835652274667,-82.93861998883426,-93.03831285644662,-66.90124128975457,-80.45797561384407,-86.55598211971805,-81.13989865783425,-75.2827535081928,-90.49854205550098,-53.848997410136576,-59.482001535913525,-60.10251994357302,-69.28231305015862,-70.26088426529485,-83.0710751385417,-69.51328430706424,-74.66493889610882,-71.75905600537581,-92.7145355573506,-80.89793631968699,-91.4821074015257,-78.98453415108463,-84.36608671789124,-76.18681820814052,,,,,,,,,,-91.09063894939543,,,,,,-93.90829555779642,,,,,,-93.05738073749215,,,,-93.03114856732066,-94.73016957522702,,,,,,,,,,,,,,,,,,,,,,,,,-94.21674089299789,,,-92.73150068107937,,,,,,,,,,,-93.37054720060812,,,,,,-94.59136788832532,,,-91.55207727987934,,,,-94.75566695390955,,,,-93.90770874850169,,,,,,,,,,-91.5798304860765,,,,,,,,,-94.50217975852414,,
2021.05.19 17:37:43,32.04,-14.099999,-25.859999,-1.043872,1.5586253,9.89763,-0.0983493,-0.05375614,-0.12950343,-0.155344248,0.105078407,-1.883700252,1004.1062,123.91405662741168,47.085943372588325,-85.933828985151,-74.05882451999926,-91.97188122059033,-81.86200924780883,-76.7500857485512,-47.41231813171212,-51.724648830421785,-56.76445579442946,-58.62524060030493,-62.58608625738012,-85.06228656656208,-75.16659953838357,-81.56749310733682,-75.57207495413903,-84.4835652274667,-82.93861998883426,-93.03831285644662,-66.90124128975457,-80.45797561384407,-86.55598211971805,-81.13989865783425,-75.2827535081928,-90.49854205550098,-53.848997410136576,-59.482001535913525,-60.10251994357302,-69.28231305015862,-70.26088426529485,-83.0710751385417,-69.51328430706424,-74.66493889610882,-71.75905600537581,-92.7145355573506,-80.89793631968699,-91.4821074015257,-78.98453415108463,-84.36608671789124,-76.18681820814052,,,,,,,,,,-91.09063894939543,,,,,,-93.90829555779642,,,,,,-93.05738073749215,,,,-93.03114856732066,-94.73016957522702,,,,,,,,,,,,,,,,,,,,,,,,,-94.21674089299789,,,-92.73150068107937,,,,,,,,,,,-93.37054720060812,,,,,,-94.59136788832532,,,-91.55207727987934,,,,-94.75566695390955,,,,-93.90770874850169,,,,,,,,,,-91.5798304860765,,,,,,,,,-94.50217975852414,,
2021.05.19 17:37:43,31.98,-13.799999,-26.58,-0.93852705,1.8602947,9.528923,-0.10751228,0.13500121,-0.08674286,-0.191895366,0.098175809,-1.834965944,1004.1062,123.9017790027562,47.0982209972438,-85.933828985151,-74.05882451999926,-91.97188122059033,-81.86200924780883,-76.7500857485512,-47.41231813171212,-51.724648830421785,-56.76445579442946,-58.62524060030493,-62.58608625738012,-85.06228656656208,-75.16659953838357,-81.56749310733682,-75.57207495413903,-84.4835652274667,-82.93861998883426,-93.03831285644662,-66.90124128975457,-80.45797561384407,-86.55598211971805,-81.13989865783425,-75.2827535081928,-90.49854205550098,-53.848997410136576,-59.482001535913525,-60.10251994357302,-69.28231305015862,-70.26088426529485,-83.0710751385417,-69.51328430706424,-74.66493889610882,-71.75905600537581,-92.7145355573506,-80.89793631968699,-91.4821074015257,-78.98453415108463,-84.36608671789124,-76.18681820814052,,,,,,,,,,-91.09063894939543,,,,,,-93.90829555779642,,,,,,-93.05738073749215,,,,-93.03114856732066,-94.73016957522702,,,,,,,,,,,,,,,,,,,,,,,,,-94.21674089299789,,,-92.73150068107937,,,,,,,,,,,-93.37054720060812,,,,,,-94.59136788832532,,,-91.55207727987934,,,,-94.75566695390955,,,,-93.90770874850169,,,,,,,,,,-91.5798304860765,,,,,,,,,-94.50217975852414,,
2021.05.19 17:37:43,31.74,-13.139999,-26.64,-1.0151415,1.5586253,9.44752,-0.11178834,0.047647487,-0.059864793,-0.16258508,0.107039884,-1.846737027,1004.1062,123.88950137810073,47.110498621899275,-85.933828985151,-74.05882451999926,-91.97188122059033,-81.86200924780883,-76.7500857485512,-47.41231813171212,-51.724648830421785,-56.76445579442946,-58.62524060030493,-62.58608625738012,-85.06228656656208,-75.16659953838357,-81.56749310733682,-75.57207495413903,-84.4835652274667,-82.93861998883426,-93.03831285644662,-66.90124128975457,-80.45797561384407,-86.55598211971805,-81.13989865783425,-75.2827535081928,-90.49854205550098,-53.848997410136576,-59.482001535913525,-60.10251994357302,-69.28231305015862,-70.26088426529485,-83.0710751385417,-69.51328430706424,-74.66493889610882,-71.75905600537581,-92.7145355573506,-80.89793631968699,-91.4821074015257,-78.98453415108463,-84.36608671789124,-76.18681820814052,,,,,,,,,,-91.09063894939543,,,,,,-93.90829555779642,,,,,,-93.05738073749215,,,,-93.03114856732066,-94.73016957522702,,,,,,,,,,,,,,,,,,,,,,,,,-94.21674089299789,,,-92.73150068107937,,,,,,,,,,,-93.37054720060812,,,,,,-94.59136788832532,,,-91.55207727987934,,,,-94.75566695390955,,,,-93.90770874850169,,,,,,,,,,-91.5798304860765,,,,,,,,,-94.50217975852414,,
2021.05.19 17:37:43,31.98,-13.62,-26.519999,-0.6775591,1.7357962,9.059659,-0.022602014,-0.053145275,0.105068825,-0.188787326,0.07464961,-1.831102014,1004.1062,123.87722375344525,47.12277624655475,-85.933828985151,-74.05882451999926,-91.97188122059033,-81.86200924780883,-76.7500857485512,-47.41231813171212,-51.724648830421785,-56.76445579442946,-58.62524060030493,-62.58608625738012,-85.06228656656208,-75.16659953838357,-81.56749310733682,-75.57207495413903,-84.4835652274667,-82.93861998883426,-93.03831285644662,-66.90124128975457,-80.45797561384407,-86.55598211971805,-81.13989865783425,-75.2827535081928,-90.49854205550098,-53.848997410136576,-59.482001535913525,-60.10251994357302,-69.28231305015862,-70.26088426529485,-83.0710751385417,-69.51328430706424,-74.66493889610882,-71.75905600537581,-92.7145355573506,-80.89793631968699,-91.4821074015257,-78.98453415108463,-84.36608671789124,-76.18681820814052,,,,,,,,,,-91.09063894939543,,,,,,-93.90829555779642,,,,,,-93.05738073749215,,,,-93.03114856732066,-94.73016957522702,,,,,,,,,,,,,,,,,,,,,,,,,-94.21674089299789,,,-92.73150068107937,,,,,,,,,,,-93.37054720060812,,,,,,-94.59136788832532,,,-91.55207727987934,,,,-94.75566695390955,,,,-93.90770874850169,,,,,,,,,,-91.5798304860765,,,,,,,,,-94.50217975852414,,
2021.05.19 17:37:43,31.56,-13.08,-26.939999,-0.48123455,1.8100165,9.445126,-0.1160644,-0.018936822,0.10567969,-0.189100042,0.050906554,-1.814226031,1004.09717,123.86494612878978,47.135053871210225,-85.933828985151,-74.05882451999926,-91.97188122059033,-81.86200924780883,-76.7500857485512,-47.41231813171212,-51.724648830421785,-56.76445579442946,-58.62524060030493,-62.58608625738012,-85.06228656656208,-75.16659953838357,-81.56749310733682,-75.57207495413903,-84.4835652274667,-82.93861998883426,-93.03831285644662,-66.90124128975457,-80.45797561384407,-86.55598211971805,-81.13989865783425,-75.2827535081928,-90.49854205550098,-53.848997410136576,-59.482001535913525,-60.10251994357302,-69.28231305015862,-70.26088426529485,-83.0710751385417,-69.51328430706424,-74.66493889610882,-71.75905600537581,-92.7145355573506,-80.89793631968699,-91.4821074015257,-78.98453415108463,-84.36608671789124,-76.18681820814052,,,,,,,,,,-91.09063894939543,,,,,,-93.90829555779642,,,,,,-93.05738073749215,,,,-93.03114856732066,-94.73016957522702,,,,,,,,,,,,,,,,,,,,,,,,,-94.21674089299789,,,-92.73150068107937,,,,,,,,,,,-93.37054720060812,,,,,,-94.59136788832532,,,-91.55207727987934,,,,-94.75566695390955,,,,-93.90770874850169,,,,,,,,,,-91.5798304860765,,,,,,,,,-94.50217975852414,,
2021.05.19 17:37:43,31.859999,-13.2,-26.699999,-0.33279404,1.8650831,10.158598,-0.09162979,-0.028099801,0.06658431,-0.181479141,0.032748129,-1.822947145,1004.09717,123.8526685041343,47.1473314958657,-85.933828985151,-74.05882451999926,-91.97188122059033,-81.86200924780883,-76.7500857485512,-47.41231813171212,-51.724648830421785,-56.76445579442946,-58.62524060030493,-62.58608625738012,-85.06228656656208,-75.16659953838357,-81.56749310733682,-75.57207495413903,-84.4835652274667,-82.93861998883426,-93.03831285644662,-66.90124128975457,-80.45797561384407,-86.55598211971805,-81.13989865783425,-75.2827535081928,-90.49854205550098,-53.848997410136576,-59.482001535913525,-60.10251994357302,-69.28231305015862,-70.26088426529485,-83.0710751385417,-69.51328430706424,-74.66493889610882,-71.75905600537581,-92.7145355573506,-80.89793631968699,-91.4821074015257,-78.98453415108463,-84.36608671789124,-76.18681820814052,,,,,,,,,,-91.09063894939543,,,,,,-93.90829555779642,,,,,,-93.05738073749215,,,,-93.03114856732066,-94.73016957522702,,,,,,,,,,,,,,,,,,,,,,,,,-94.21674089299789,,,-92.73150068107937,,,,,,,,,,,-93.37054720060812,,,,,,-94.59136788832532,,,-91.55207727987934,,,,-94.75566695390955,,,,-93.90770874850169,,,,,,,,,,-91.5798304860765,,,,,,,,,-94.50217975852414,,
2021.05.19 17:37:43,31.859999,-13.38,-26.64,-0.49320555,1.6711528,9.734824,0.05009095,-0.053145275,-0.000611,-0.16979675,0.050620757,-1.840372443,1004.09717,123.84039087947883,47.159609120521175,-85.933828985151,-74.05882451999926,-91.97188122059033,-81.86200924780883,-76.7500857485512,-47.41231813171212,-51.724648830421785,-56.76445579442946,-58.62524060030493,-62.58608625738012,-85.06228656656208,-75.16659953838357,-81.56749310733682,-75.57207495413903,-84.4835652274667,-82.93861998883426,-93.03831285644662,-66.90124128975457,-80.45797561384407,-86.55598211971805,-81.13989865783425,-75.2827535081928,-90.49854205550098,-53.848997410136576,-59.482001535913525,-60.10251994357302,-69.28231305015862,-70.26088426529485,-83.0710751385417,-69.51328430706424,-74.66493889610882,-71.75905600537581,-92.7145355573506,-80.89793631968699,-91.4821074015257,-78.98453415108463,-84.36608671789124,-76.18681820814052,,,,,,,,,,-91.09063894939543,,,,,,-93.90829555779642,,,,,,-93.05738073749215,,,,-93.03114856732066,-94.73016957522702,,,,,,,,,,,,,,,,,,,,,,,,,-94.21674089299789,,,-92.73150068107937,,,,,,,,,,,-93.37054720060812,,,,,,-94.59136788832532,,,-91.55207727987934,,,,-94.75566695390955,,,,-93.90770874850169,,,,,,,,,,-91.5798304860765,,,,,,,,,-94.50217975852414,,
2021.05.19 17:37:43,31.619999,-12.96,-26.099998,-0.61770403,1.7645266,9.605537,0.036651913,-0.03970624,-0.021380283,-0.181307122,0.064218648,-1.822541237,1004.09717,123.82811325482335,47.17188674517665,-85.933828985151,-74.05882451999926,-91.97188122059033,-81.86200924780883,-76.7500857485512,-47.41231813171212,-51.724648830421785,-56.76445579442946,-58.62524060030493,-62.58608625738012,-85.06228656656208,-75.16659953838357,-81.56749310733682,-75.57207495413903,-84.4835652274667,-82.93861998883426,-93.03831285644662,-66.90124128975457,-80.45797561384407,-86.55598211971805,-81.13989865783425,-75.2827535081928,-90.49854205550098,-53.848997410136576,-59.482001535913525,-60.10251994357302,-69.28231305015862,-70.26088426529485,-83.0710751385417,-69.51328430706424,-74.66493889610882,-71.75905600537581,-92.7145355573506,-80.89793631968699,-91.4821074015257,-78.98453415108463,-84.36608671789124,-76.18681820814052,,,,,,,,,,-91.09063894939543,,,,,,-93.90829555779642,,,,,,-93.05738073749215,,,,-93.03114856732066,-94.73016957522702,,,,,,,,,,,,,,,,,,,,,,,,,-94.21674089299789,,,-92.73150068107937,,,,,,,,,,,-93.37054720060812,,,,,,-94.59136788832532,,,-91.55207727987934,,,,-94.75566695390955,,,,-93.90770874850169,,,,,,,,,,-91.5798304860765,,,,,,,,,-94.50217975852414,,
2021.05.19 17:37:43,31.74,-12.96,-26.76,-0.39983168,1.7286136,10.096349,0.019547688,-0.07269296,-0.052534413,-0.169437364,0.03958093,-1.827700257,1004.09644,123.81583563016788,47.184164369832125,-85.933828985151,-74.05882451999926,-91.97188122059033,-81.86200924780883,-76.7500857485512,-47.41231813171212,-51.724648830421785,-56.76445579442946,-58.62524060030493,-62.58608625738012,-85.06228656656208,-75.16659953838357,-81.56749310733682,-75.57207495413903,-84.4835652274667,-82.93861998883426,-93.03831285644662,-66.90124128975457,-80.45797561384407,-86.55598211971805,-81.13989865783425,-75.2827535081928,-90.49854205550098,-53.848997410136576,-59.482001535913525,-60.10251994357302,-69.28231305015862,-70.26088426529485,-83.0710751385417,-69.51328430706424,-74.66493889610882,-71.75905600537581,-92.7145355573506,-80.89793631968699,-91.4821074015257,-78.98453415108463,-84.36608671789124,-76.18681820814052,,,,,,,,,,-91.09063894939543,,,,,,-93.90829555779642,,,,,,-93.05738073749215,,,,-93.03114856732066,-94.73016957522702,,,,,,,,,,,,,,,,,,,,,,,,,-94.21674089299789,,,-92.73150068107937,,,,,,,,,,,-93.37054720060812,,,,,,-94.59136788832532,,,-91.55207727987934,,,,-94.75566695390955,,,,-93.90770874850169,,,,,,,,,,-91.5798304860765,,,,,,,,,-94.50217975852414,,
2021.05.19 17:37:43,31.019999,-12.48,-26.76,-0.48602295,1.4437037,9.662998,0.10629055,-0.03604105,-0.13744467,-0.148123831,0.050254975,-1.839757919,1004.09644,123.8035580055124,47.1964419944876,-85.933828985151,-74.05882451999926,-91.97188122059033,-81.86200924780883,-76.7500857485512,-47.41231813171212,-51.724648830421785,-56.76445579442946,-58.62524060030493,-62.58608625738012,-85.06228656656208,-75.16659953838357,-81.56749310733682,-75.57207495413903,-84.4835652274667,-82.93861998883426,-93.03831285644662,-66.90124128975457,-80.45797561384407,-86.55598211971805,-81.13989865783425,-75.2827535081928,-90.49854205550098,-53.848997410136576,-59.482001535913525,-60.10251994357302,-69.28231305015862,-70.26088426529485,-83.0710751385417,-69.51328430706424,-74.66493889610882,-71.75905600537581,-92.7145355573506,-80.89793631968699,-91.4821074015257,-78.98453415108463,-84.36608671789124,-76.18681820814052,,,,,,,,,,-91.09063894939543,,,,,,-93.90829555779642,,,,,,-93.05738073749215,,,,-93.03114856732066,-94.73016957522702,,,,,,,,,,,,,,,,,,,,,,,,,-94.21674089299789,,,-92.73150068107937,,,,,,,,,,,-93.37054720060812,,,,,,-94.59136788832532,,,-91.55207727987934,,,,-94.75566695390955,,,,-93.90770874850169,,,,,,,,,,-91.5798304860765,,,,,,,,,-94.50217975852414,,
2021.05.19 17:37:43,31.14,-13.0199995,-26.82,-0.78769237,1.079785,9.830592,0.08307768,-0.08368854,-0.15943582,-0.109053969,0.079955831,-1.896573186,1004.09644,123.79128038085693,47.208719619143075,-85.933828985151,-74.05882451999926,-91.97188122059033,-81.86200924780883,-76.7500857485512,-47.41231813171212,-51.724648830421785,-56.76445579442946,-58.62524060030493,-62.58608625738012,-85.06228656656208,-75.16659953838357,-81.56749310733682,-75.57207495413903,-84.4835652274667,-82.93861998883426,-93.03831285644662,-66.90124128975457,-80.45797561384407,-86.55598211971805,-81.13989865783425,-75.2827535081928,-90.49854205550098,-53.848997410136576,-59.482001535913525,-60.10251994357302,-69.28231305015862,-70.26088426529485,-83.0710751385417,-69.51328430706424,-74.66493889610882,-71.75905600537581,-92.7145355573506,-80.89793631968699,-91.4821074015257,-78.98453415108463,-84.36608671789124,-76.18681820814052,,,,,,,,,,-91.09063894939543,,,,,,-93.90829555779642,,,,,,-93.05738073749215,,,,-93.03114856732066,-94.73016957522702,,,,,,,,,,,,,,,,,,,,,,,,,-94.21674089299789,,,-92.73150068107937,,,,,,,,,,,-93.37054720060812,,,,,,-94.59136788832532,,,-91.55207727987934,,,,-94.75566695390955,,,,-93.90770874850169,,,,,,,,,,-91.5798304860765,,,,,,,,,-94.50217975852414,,
2021.05.19 17:37:43,31.439999,-12.9,-27.119999,-0.17477672,0.7158663,11.063606,-0.13744467,-0.08307768,-0.12583824,-0.064606495,0.015796131,-1.914282322,1004.09644,123.77900275620145,47.22099724379855,-85.933828985151,-74.05882451999926,-91.97188122059033,-81.86200924780883,-76.7500857485512,-47.41231813171212,-51.724648830421785,-56.76445579442946,-58.62524060030493,-62.58608625738012,-85.06228656656208,-75.16659953838357,-81.56749310733682,-75.57207495413903,-84.4835652274667,-82.93861998883426,-93.03831285644662,-66.90124128975457,-80.45797561384407,-86.55598211971805,-81.13989865783425,-75.2827535081928,-90.49854205550098,-53.848997410136576,-59.482001535913525,-60.10251994357302,-69.28231305015862,-70.26088426529485,-83.0710751385417,-69.51328430706424,-74.66493889610882,-71.75905600537581,-92.7145355573506,-80.89793631968699,-91.4821074015257,-78.98453415108463,-84.36608671789124,-76.18681820814052,,,,,,,,,,-91.09063894939543,,,,,,-93.90829555779642,,,,,,-93.05738073749215,,,,-93.03114856732066,-94.73016957522702,,,,,,,,,,,,,,,,,,,,,,,,,-94.21674089299789,,,-92.73150068107937,,,,,,,,,,,-93.37054720060812,,,,,,-94.59136788832532,,,-91.55207727987934,,,,-94.75566695390955,,,,-93.90770874850169,,,,,,,,,,-91.5798304860765,,,,,,,,,-94.50217975852414,,
2021.05.19 17:37:43,31.26,-12.96,-26.64,-0.6440403,0.2657564,11.508927,-0.16065755,0.059253927,-0.19730948,-0.023051172,0.055901758,-1.963256359,1004.093,123.76672513154598,47.233274868454025,-85.933828985151,-74.05882451999926,-91.97188122059033,-81.86200924780883,-76.7500857485512,-47.41231813171212,-51.724648830421785,-56.76445579442946,-58.62524060030493,-62.58608625738012,-85.06228656656208,-75.16659953838357,-81.56749310733682,-75.57207495413903,-84.4835652274667,-82.93861998883426,-93.03831285644662,-66.90124128975457,-80.45797561384407,-86.55598211971805,-81.13989865783425,-75.2827535081928,-90.49854205550098,-53.848997410136576,-59.482001535913525,-60.10251994357302,-69.28231305015862,-70.26088426529485,-83.0710751385417,-69.51328430706424,-74.66493889610882,-71.75905600537581,-92.7145355573506,-80.89793631968699,-91.4821074015257,-78.98453415108463,-84.36608671789124,-76.18681820814052,,,,,,,,,,-91.09063894939543,,,,,,-93.90829555779642,,,,,,-93.05738073749215,,,,-93.03114856732066,-94.73016957522702,,,,,,,,,,,,,,,,,,,,,,,,,-94.21674089299789,,,-92.73150068107937,,,,,,,,,,,-93.37054720060812,,,,,,-94.59136788832532,,,-91.55207727987934,,,,-94.75566695390955,,,,-93.90770874850169,,,,,,,,,,-91.5798304860765,,,,,,,,,-94.50217975852414,,
2021.05.19 17:37:43,31.92,-13.38,-25.92,-0.16998832,0.20590134,10.831368,0.04886922,-0.09101892,-0.089186326,-0.019005096,0.015692787,-1.958717108,1004.093,123.7544475068905,47.2455524931095,-85.933828985151,-74.05882451999926,-91.97188122059033,-81.86200924780883,-76.7500857485512,-47.41231813171212,-51.724648830421785,-56.76445579442946,-58.62524060030493,-62.58608625738012,-85.06228656656208,-75.16659953838357,-81.56749310733682,-75.57207495413903,-84.4835652274667,-82.93861998883426,-93.03831285644662,-66.90124128975457,-80.45797561384407,-86.55598211971805,-81.13989865783425,-75.2827535081928,-90.49854205550098,-53.848997410136576,-59.482001535913525,-60.10251994357302,-69.28231305015862,-70.26088426529485,-83.0710751385417,-69.51328430706424,-74.66493889610882,-71.75905600537581,-92.7145355573506,-80.89793631968699,-91.4821074015257,-78.98453415108463,-84.36608671789124,-76.18681820814052,,,,,,,,,,-91.09063894939543,,,,,,-93.90829555779642,,,,,,-93.05738073749215,,,,-93.03114856732066,-94.73016957522702,,,,,,,,,,,,,,,,,,,,,,,,,-94.21674089299789,,,-92.73150068107937,,,,,,,,,,,-93.37054720060812,,,,,,-94.59136788832532,,,-91.55207727987934,,,,-94.75566695390955,,,,-93.90770874850169,,,,,,,,,,-91.5798304860765,,,,,,,,,-94.50217975852414,,
2021.05.19 17:37:44,31.38,-12.84,-26.34,0.38307226,0.24420857,10.019734,0.16249016,0.020158553,-0.017715093,-0.024350151,-0.038213167,-1.931955814,1004.093,123.74216988223503,47.25783011776497,-77.44153706781499,-67.93004237842686,-84.68396571805526,-73.00834622271653,-80.50856210466182,-45.605256185661325,-51.32830694350269,-57.82282302865505,-82.77567184865423,-64.59270337362928,-85.59519657188626,-91.8724011465213,,-71.75425268993996,-90.86461646844552,-85.29738887667955,,-70.16756085511948,-86.80803829292573,-94.5399596776659,-78.28792260147118,-70.66740864444094,-84.56378737861398,-38.451097570364595,-58.42012025603257,-67.93303899723536,-73.76581955314728,-69.54820977087502,-84.1263348123373,-70.93359885537217,-82.7997787769412,-87.32976524152969,-88.1598816110128,-90.68749282420997,-87.72927684686583,-77.02192456410145,-86.68596001042339,-72.20667016925218,,-94.1751134982831,-87.1811693578732,-92.09598182861659,,,,,,,,,,,-93.55704340475043,,,,,,,,,,-93.56326335869741,,,,-91.54200923470906,,,,,,,,,,,,,,,,,,,,,,,-94.93273298419189,,,,,,,,-92.19381169986957,,-94.70912245236389,,,,,-93.74152456805518,-90.85108238736666,,,-92.49873996855601,,,,,-92.23565567271567,,,,,-94.67058410449866,,,,,,,,-94.54871451240174,,,,,,,-90.93357908759741,,-93.1061447220386,,,,,,
2021.05.19 17:37:44,31.439999,-13.139999,-25.98,0.40462008,0.15083471,9.627085,0.21197024,-0.04642576,-0.057421334,-0.015652645,-0.042004626,-1.944694042,1004.093,123.72989225757955,47.27010774242044,-77.44153706781499,-67.93004237842686,-84.68396571805526,-73.00834622271653,-80.50856210466182,-45.605256185661325,-51.32830694350269,-57.82282302865505,-82.77567184865423,-64.59270337362928,-85.59519657188626,-91.8724011465213,,-71.75425268993996,-90.86461646844552,-85.29738887667955,,-70.16756085511948,-86.80803829292573,-94.5399596776659,-78.28792260147118,-70.66740864444094,-84.56378737861398,-38.451097570364595,-58.42012025603257,-67.93303899723536,-73.76581955314728,-69.54820977087502,-84.1263348123373,-70.93359885537217,-82.7997787769412,-87.32976524152969,-88.1598816110128,-90.68749282420997,-87.72927684686583,-77.02192456410145,-86.68596001042339,-72.20667016925218,,-94.1751134982831,-87.1811693578732,-92.09598182861659,,,,,,,,,,,-93.55704340475043,,,,,,,,,,-93.56326335869741,,,,-91.54200923470906,,,,,,,,,,,,,,,,,,,,,,,-94.93273298419189,,,,,,,,-92.19381169986957,,-94.70912245236389,,,,,-93.74152456805518,-90.85108238736666,,,-92.49873996855601,,,,,-92.23565567271567,,,,,-94.67058410449866,,,,,,,,-94.54871451240174,,,,,,,-90.93357908759741,,-93.1061447220386,,,,,,
2021.05.19 17:37:44,31.679998,-13.259999,-25.5,0.30406362,0.35913026,8.571242,0.26816985,0.070249505,-0.08246681,-0.041848656,-0.035459992,-1.930042744,1004.0984,123.71761463292408,47.28238536707592,-77.44153706781499,-67.93004237842686,-84.68396571805526,-73.00834622271653,-80.50856210466182,-45.605256185661325,-51.32830694350269,-57.82282302865505,-82.77567184865423,-64.59270337362928,-85.59519657188626,-91.8724011465213,,-71.75425268993996,-90.86461646844552,-85.29738887667955,,-70.16756085511948,-86.80803829292573,-94.5399596776659,-78.28792260147118,-70.66740864444094,-84.56378737861398,-38.451097570364595,-58.42012025603257,-67.93303899723536,-73.76581955314728,-69.54820977087502,-84.1263348123373,-70.93359885537217,-82.7997787769412,-87.32976524152969,-88.1598816110128,-90.68749282420997,-87.72927684686583,-77.02192456410145,-86.68596001042339,-72.20667016925218,,-94.1751134982831,-87.1811693578732,-92.09598182861659,,,,,,,,,,,-93.55704340475043,,,,,,,,,,-93.56326335869741,,,,-91.54200923470906,,,,,,,,,,,,,,,,,,,,,,,-94.93273298419189,,,,,,,,-92.19381169986957,,-94.70912245236389,,,,,-93.74152456805518,-90.85108238736666,,,-92.49873996855601,,,,,-92.23565567271567,,,,,-94.67058410449866,,,,,,,,-94.54871451240174,,,,,,,-90.93357908759741,,-93.1061447220386,,,,,,
2021.05.19 17:37:44,31.619999,-12.9,-26.099998,0.51714754,0.5363012,8.949526,0.15271631,0.014049901,-0.1142318,-0.059754077,-0.057720724,-1.903541088,1004.0984,123.7053370082686,47.29466299173139,-77.44153706781499,-67.93004237842686,-84.68396571805526,-73.00834622271653,-80.50856210466182,-45.605256185661325,-51.32830694350269,-57.82282302865505,-82.77567184865423,-64.59270337362928,-85.59519657188626,-91.8724011465213,,-71.75425268993996,-90.86461646844552,-85.29738887667955,,-70.16756085511948,-86.80803829292573,-94.5399596776659,-78.28792260147118,-70.66740864444094,-84.56378737861398,-38.451097570364595,-58.42012025603257,-67.93303899723536,-73.76581955314728,-69.54820977087502,-84.1263348123373,-70.93359885537217,-82.7997787769412,-87.32976524152969,-88.1598816110128,-90.68749282420997,-87.72927684686583,-77.02192456410145,-86.68596001042339,-72.20667016925218,,-94.1751134982831,-87.1811693578732,-92.09598182861659,,,,,,,,,,,-93.55704340475043,,,,,,,,,,-93.56326335869741,,,,-91.54200923470906,,,,,,,,,,,,,,,,,,,,,,,-94.93273298419189,,,,,,,,-92.19381169986957,,-94.70912245236389,,,,,-93.74152456805518,-90.85108238736666,,,-92.49873996855601,,,,,-92.23565567271567,,,,,-94.67058410449866,,,,,,,,-94.54871451240174,,,,,,,-90.93357908759741,,-93.1061447220386,,,,,,
2021.05.19 17:37:44,31.8,-12.96,-25.199999,0.22026655,0.59136784,9.399636,0.044593163,0.030543262,-0.1826487,-0.062813893,-0.02342923,-1.909291267,1004.0984,123.69305938361313,47.30694061638687,-77.44153706781499,-67.93004237842686,-84.68396571805526,-73.00834622271653,-80.50856210466182,-45.605256185661325,-51.32830694350269,-57.82282302865505,-82.77567184865423,-64.59270337362928,-85.59519657188626,-91.8724011465213,,-71.75425268993996,-90.86461646844552,-85.29738887667955,,-70.16756085511948,-86.80803829292573,-94.5399596776659,-78.28792260147118,-70.66740864444094,-84.56378737861398,-38.451097570364595,-58.42012025603257,-67.93303899723536,-73.76581955314728,-69.54820977087502,-84.1263348123373,-70.93359885537217,-82.7997787769412,-87.32976524152969,-88.1598816110128,-90.68749282420997,-87.72927684686583,-77.02192456410145,-86.68596001042339,-72.20667016925218,,-94.1751134982831,-87.1811693578732,-92.09598182861659,,,,,,,,,,,-93.55704340475043,,,,,,,,,,-93.56326335869741,,,,-91.54200923470906,,,,,,,,,,,,,,,,,,,,,,,-94.93273298419189,,,,,,,,-92.19381169986957,,-94.70912245236389,,,,,-93.74152456805518,-90.85108238736666,,,-92.49873996855601,,,,,-92.23565567271567,,,,,-94.67058410449866,,,,,,,,-94.54871451240174,,,,,,,-90.93357908759741,,-93.1061447220386,,,,,,
2021.05.19 17:37:44,31.679998,-12.84,-25.619999,-0.29927522,0.6727707,9.406818,0.001221731,0.009773844,-0.19975294,-0.071361914,0.031803984,-1.910713911,1004.0984,123.68078175895765,47.31921824104234,-77.44153706781499,-67.93004237842686,-84.68396571805526,-73.00834622271653,-80.50856210466182,-45.605256185661325,-51.32830694350269,-57.82282302865505,-82.77567184865423,-64.59270337362928,-85.59519657188626,-91.8724011465213,,-71.75425268993996,-90.86461646844552,-85.29738887667955,,-70.16756085511948,-86.80803829292573,-94.5399596776659,-78.28792260147118,-70.66740864444094,-84.56378737861398,-38.451097570364595,-58.42012025603257,-67.93303899723536,-73.76581955314728,-69.54820977087502,-84.1263348123373,-70.93359885537217,-82.7997787769412,-87.32976524152969,-88.1598816110128,-90.68749282420997,-87.72927684686583,-77.02192456410145,-86.68596001042339,-72.20667016925218,,-94.1751134982831,-87.1811693578732,-92.09598182861659,,,,,,,,,,,-93.55704340475043,,,,,,,,,,-93.56326335869741,,,,-91.54200923470906,,,,,,,,,,,,,,,,,,,,,,,-94.93273298419189,,,,,,,,-92.19381169986957,,-94.70912245236389,,,,,-93.74152456805518,-90.85108238736666,,,-92.49873996855601,,,,,-92.23565567271567,,,,,-94.67058410449866,,,,,,,,-94.54871451240174,,,,,,,-90.93357908759741,,-93.1061447220386,,,,,,
2021.05.19 17:37:44,31.859999,-12.84,-25.5,-0.20350714,1.1300632,8.736442,0.02687807,0.05009095,-0.092240654,-0.12860176,0.023289841,-1.862022281,1004.1006,123.66850413430218,47.33149586569782,-77.44153706781499,-67.93004237842686,-84.68396571805526,-73.00834622271653,-80.50856210466182,-45.605256185661325,-51.32830694350269,-57.82282302865505,-82.77567184865423,-64.59270337362928,-85.59519657188626,-91.8724011465213,,-71.75425268993996,-90.86461646844552,-85.29738887667955,,-70.16756085511948,-86.80803829292573,-94.5399596776659,-78.28792260147118,-70.66740864444094,-84.56378737861398,-38.451097570364595,-58.42012025603257,-67.93303899723536,-73.76581955314728,-69.54820977087502,-84.1263348123373,-70.93359885537217,-82.7997787769412,-87.32976524152969,-88.1598816110128,-90.68749282420997,-87.72927684686583,-77.02192456410145,-86.68596001042339,-72.20667016925218,,-94.1751134982831,-87.1811693578732,-92.09598182861659,,,,,,,,,,,-93.55704340475043,,,,,,,,,,-93.56326335869741,,,,-91.54200923470906,,,,,,,,,,,,,,,,,,,,,,,-94.93273298419189,,,,,,,,-92.19381169986957,,-94.70912245236389,,,,,-93.74152456805518,-90.85108238736666,,,-92.49873996855601,,,,,-92.23565567271567,,,,,-94.67058410449866,,,,,,,,-94.54871451240174,,,,,,,-90.93357908759741,,-93.1061447220386,,,,,,
2021.05.19 17:37:44,31.859999,-12.599999,-25.08,-0.06943185,1.352724,8.875306,0.004276057,-0.004276057,-0.025045475,-0.151245758,0.007822878,-1.837183833,1004.1006,123.6562265096467,47.34377349035329,-77.44153706781499,-67.93004237842686,-84.68396571805526,-73.00834622271653,-80.50856210466182,-45.605256185661325,-51.32830694350269,-57.82282302865505,-82.77567184865423,-64.59270337362928,-85.59519657188626,-91.8724011465213,,-71.75425268993996,-90.86461646844552,-85.29738887667955,,-70.16756085511948,-86.80803829292573,-94.5399596776659,-78.28792260147118,-70.66740864444094,-84.56378737861398,-38.451097570364595,-58.42012025603257,-67.93303899723536,-73.76581955314728,-69.54820977087502,-84.1263348123373,-70.93359885537217,-82.7997787769412,-87.32976524152969,-88.1598816110128,-90.68749282420997,-87.72927684686583,-77.02192456410145,-86.68596001042339,-72.20667016925218,,-94.1751134982831,-87.1811693578732,-92.09598182861659,,,,,,,,,,,-93.55704340475043,,,,,,,,,,-93.56326335869741,,,,-91.54200923470906,,,,,,,,,,,,,,,,,,,,,,,-94.93273298419189,,,,,,,,-92.19381169986957,,-94.70912245236389,,,,,-93.74152456805518,-90.85108238736666,,,-92.49873996855601,,,,,-92.23565567271567,,,,,-94.67058410449866,,,,,,,,-94.54871451240174,,,,,,,-90.93357908759741,,-93.1061447220386,,,,,,
2021.05.19 17:37:44,32.04,-12.78,-25.38,-0.33279404,1.364695,9.428367,-0.07696902,-0.021991149,-0.043982297,-0.143656984,0.035282455,-1.847982645,1004.1006,123.64394888499123,47.35605111500877,-77.44153706781499,-67.93004237842686,-84.68396571805526,-73.00834622271653,-80.50856210466182,-45.605256185661325,-51.32830694350269,-57.82282302865505,-82.77567184865423,-64.59270337362928,-85.59519657188626,-91.8724011465213,,-71.75425268993996,-90.86461646844552,-85.29738887667955,,-70.16756085511948,-86.80803829292573,-94.5399596776659,-78.28792260147118,-70.66740864444094,-84.56378737861398,-38.451097570364595,-58.42012025603257,-67.93303899723536,-73.76581955314728,-69.54820977087502,-84.1263348123373,-70.93359885537217,-82.7997787769412,-87.32976524152969,-88.1598816110128,-90.68749282420997,-87.72927684686583,-77.02192456410145,-86.68596001042339,-72.20667016925218,,-94.1751134982831,-87.1811693578732,-92.09598182861659,,,,,,,,,,,-93.55704340475043,,,,,,,,,,-93.56326335869741,,,,-91.54200923470906,,,,,,,,,,,,,,,,,,,,,,,-94.93273298419189,,,,,,,,-92.19381169986957,,-94.70912245236389,,,,,-93.74152456805518,-90.85108238736666,,,-92.49873996855601,,,,,-92.23565567271567,,,,,-94.67058410449866,,,,,,,,-94.54871451240174,,,,,,,-90.93357908759741,,-93.1061447220386,,,,,,
2021.05.19 17:37:44,32.34,-12.84,-25.019999,-0.10055647,1.4891934,9.296685,-0.06536258,0.001221731,-0.017715093,-0.158826917,0.010815958,-1.834738135,1004.1006,123.63167126033575,47.36832873966424,-77.44153706781499,-67.93004237842686,-84.68396571805526,-73.00834622271653,-80.50856210466182,-45.605256185661325,-51.32830694350269,-57.82282302865505,-82.77567184865423,-64.59270337362928,-85.59519657188626,-91.8724011465213,,-71.75425268993996,-90.86461646844552,-85.29738887667955,,-70.16756085511948,-86.80803829292573,-94.5399596776659,-78.28792260147118,-70.66740864444094,-84.56378737861398,-38.451097570364595,-58.42012025603257,-67.93303899723536,-73.76581955314728,-69.54820977087502,-84.1263348123373,-70.93359885537217,-82.7997787769412,-87.32976524152969,-88.1598816110128,-90.68749282420997,-87.72927684686583,-77.02192456410145,-86.68596001042339,-72.20667016925218,,-94.1751134982831,-87.1811693578732,-92.09598182861659,,,,,,,,,,,-93.55704340475043,,,,,,,,,,-93.56326335869741,,,,-91.54200923470906,,,,,,,,,,,,,,,,,,,,,,,-94.93273298419189,,,,,,,,-92.19381169986957,,-94.70912245236389,,,,,-93.74152456805518,-90.85108238736666,,,-92.49873996855601,,,,,-92.23565567271567,,,,,-94.67058410449866,,,,,,,,-94.54871451240174,,,,,,,-90.93357908759741,,-93.1061447220386,,,,,,
2021.05.19 17:37:44,31.98,-12.599999,-25.26,0.20111294,1.7908629,9.148245,-0.022602014,0.061086524,0.052534413,-0.193270072,-0.021980232,-1.801782012,1004.09644,123.61939363568028,47.38060636431972,-77.44153706781499,-67.93004237842686,-84.68396571805526,-73.00834622271653,-80.50856210466182,-45.605256185661325,-51.32830694350269,-57.82282302865505,-82.77567184865423,-64.59270337362928,-85.59519657188626,-91.8724011465213,,-71.75425268993996,-90.86461646844552,-85.29738887667955,,-70.16756085511948,-86.80803829292573,-94.5399596776659,-78.28792260147118,-70.66740864444094,-84.56378737861398,-38.451097570364595,-58.42012025603257,-67.93303899723536,-73.76581955314728,-69.54820977087502,-84.1263348123373,-70.93359885537217,-82.7997787769412,-87.32976524152969,-88.1598816110128,-90.68749282420997,-87.72927684686583,-77.02192456410145,-86.68596001042339,-72.20667016925218,,-94.1751134982831,-87.1811693578732,-92.09598182861659,,,,,,,,,,,-93.55704340475043,,,,,,,,,,-93.56326335869741,,,,-91.54200923470906,,,,,,,,,,,,,,,,,,,,,,,-94.93273298419189,,,,,,,,-92.19381169986957,,-94.70912245236389,,,,,-93.74152456805518,-90.85108238736666,,,-92.49873996855601,,,,,-92.23565567271567,,,,,-94.67058410449866,,,,,,,,-94.54871451240174,,,,,,,-90.93357908759741,,-93.1061447220386,,,,,,
2021.05.19 17:37:44,31.8,-13.0199995,-24.779999,-0.20829555,1.6591818,9.40203,-0.045814894,0.096516706,-0.018325957,-0.17463024,0.022150695,-1.833301902,1004.09644,123.6071160110248,47.39288398897519,-77.44153706781499,-67.93004237842686,-84.68396571805526,-73.00834622271653,-80.50856210466182,-45.605256185661325,-51.32830694350269,-57.82282302865505,-82.77567184865423,-64.59270337362928,-85.59519657188626,-91.8724011465213,,-71.75425268993996,-90.86461646844552,-85.29738887667955,,-70.16756085511948,-86.80803829292573,-94.5399596776659,-78.28792260147118,-70.66740864444094,-84.56378737861398,-38.451097570364595,-58.42012025603257,-67.93303899723536,-73.76581955314728,-69.54820977087502,-84.1263348123373,-70.93359885537217,-82.7997787769412,-87.32976524152969,-88.1598816110128,-90.68749282420997,-87.72927684686583,-77.02192456410145,-86.68596001042339,-72.20667016925218,,-94.1751134982831,-87.1811693578732,-92.09598182861659,,,,,,,,,,,-93.55704340475043,,,,,,,,,,-93.56326335869741,,,,-91.54200923470906,,,,,,,,,,,,,,,,,,,,,,,-94.93273298419189,,,,,,,,-92.19381169986957,,-94.70912245236389,,,,,-93.74152456805518,-90.85108238736666,,,-92.49873996855601,,,,,-92.23565567271567,,,,,-94.67058410449866,,,,,,,,-94.54871451240174,,,,,,,-90.93357908759741,,-93.1061447220386,,,,,,
2021.05.19 17:37:44,31.98,-12.66,-24.66,0.07182605,1.8842367,9.296685,-0.001832596,0.073303826,0.029932396,-0.199963748,-0.007725831,-1.801572919,1004.09644,123.59483838636933,47.40516161363067,-77.44153706781499,-67.93004237842686,-84.68396571805526,-73.00834622271653,-80.50856210466182,-45.605256185661325,-51.32830694350269,-57.82282302865505,-82.77567184865423,-64.59270337362928,-85.59519657188626,-91.8724011465213,,-71.75425268993996,-90.86461646844552,-85.29738887667955,,-70.16756085511948,-86.80803829292573,-94.5399596776659,-78.28792260147118,-70.66740864444094,-84.56378737861398,-38.451097570364595,-58.42012025603257,-67.93303899723536,-73.76581955314728,-69.54820977087502,-84.1263348123373,-70.93359885537217,-82.7997787769412,-87.32976524152969,-88.1598816110128,-90.68749282420997,-87.72927684686583,-77.02192456410145,-86.68596001042339,-72.20667016925218,,-94.1751134982831,-87.1811693578732,-92.09598182861659,,,,,,,,,,,-93.55704340475043,,,,,,,,,,-93.56326335869741,,,,-91.54200923470906,,,,,,,,,,,,,,,,,,,,,,,-94.93273298419189,,,,,,,,-92.19381169986957,,-94.70912245236389,,,,,-93.74152456805518,-90.85108238736666,,,-92.49873996855601,,,,,-92.23565567271567,,,,,-94.67058410449866,,,,,,,,-94.54871451240174,,,,,,,-90.93357908759741,,-93.1061447220386,,,,,,
2021.05.19 17:37:44,31.8,-12.3,-24.779999,-0.004788403,2.0757728,9.44752,-0.005497787,0.0842994,0.07696902,-0.216279507,0.000507,-1.778297663,1004.09644,123.58256076171385,47.41743923828614,-77.44153706781499,-67.93004237842686,-84.68396571805526,-73.00834622271653,-80.50856210466182,-45.605256185661325,-51.32830694350269,-57.82282302865505,-82.77567184865423,-64.59270337362928,-85.59519657188626,-91.8724011465213,,-71.75425268993996,-90.86461646844552,-85.29738887667955,,-70.16756085511948,-86.80803829292573,-94.5399596776659,-78.28792260147118,-70.66740864444094,-84.56378737861398,-38.451097570364595,-58.42012025603257,-67.93303899723536,-73.76581955314728,-69.54820977087502,-84.1263348123373,-70.93359885537217,-82.7997787769412,-87.32976524152969,-88.1598816110128,-90.68749282420997,-87.72927684686583,-77.02192456410145,-86.68596001042339,-72.20667016925218,,-94.1751134982831,-87.1811693578732,-92.09598182861659,,,,,,,,,,,-93.55704340475043,,,,,,,,,,-93.56326335869741,,,,-91.54200923470906,,,,,,,,,,,,,,,,,,,,,,,-94.93273298419189,,,,,,,,-92.19381169986957,,-94.70912245236389,,,,,-93.74152456805518,-90.85108238736666,,,-92.49873996855601,,,,,-92.23565567271567,,,,,-94.67058410449866,,,,,,,,-94.54871451240174,,,,,,,-90.93357908759741,,-93.1061447220386,,,,,,
2021.05.19 17:37:44,32.34,-12.599999,-24.359999,-0.055066638,2.1499932,9.768343,0.004886922,0.096516706,0.09285152,-0.216640487,0.005637195,-1.78573823,1004.10376,123.57028313705838,47.42971686294162,-77.44153706781499,-67.93004237842686,-84.68396571805526,-73.00834622271653,-80.50856210466182,-45.605256185661325,-51.32830694350269,-57.82282302865505,-82.77567184865423,-64.59270337362928,-85.59519657188626,-91.8724011465213,,-71.75425268993996,-90.86461646844552,-85.29738887667955,,-70.16756085511948,-86.80803829292573,-94.5399596776659,-78.28792260147118,-70.66740864444094,-84.56378737861398,-38.451097570364595,-58.42012025603257,-67.93303899723536,-73.76581955314728,-69.54820977087502,-84.1263348123373,-70.93359885537217,-82.7997787769412,-87.32976524152969,-88.1598816110128,-90.68749282420997,-87.72927684686583,-77.02192456410145,-86.68596001042339,-72.20667016925218,,-94.1751134982831,-87.1811693578732,-92.09598182861659,,,,,,,,,,,-93.55704340475043,,,,,,,,,,-93.56326335869741,,,,-91.54200923470906,,,,,,,,,,,,,,,,,,,,,,,-94.93273298419189,,,,,,,,-92.19381169986957,,-94.70912245236389,,,,,-93.74152456805518,-90.85108238736666,,,-92.49873996855601,,,,,-92.23565567271567,,,,,-94.67058410449866,,,,,,,,-94.54871451240174,,,,,,,-90.93357908759741,,-93.1061447220386,,,,,,
2021.05.19 17:37:44,32.399998,-11.88,-24.779999,0.055066638,2.0949266,10.893618,0.017104227,0.01038471,0.16249016,-0.189985931,-0.005054902,-1.783301473,1004.10376,123.5580055124029,47.44199448759709,-77.44153706781499,-67.93004237842686,-84.68396571805526,-73.00834622271653,-80.50856210466182,-45.605256185661325,-51.32830694350269,-57.82282302865505,-82.77567184865423,-64.59270337362928,-85.59519657188626,-91.8724011465213,,-71.75425268993996,-90.86461646844552,-85.29738887667955,,-70.16756085511948,-86.80803829292573,-94.5399596776659,-78.28792260147118,-70.66740864444094,-84.56378737861398,-38.451097570364595,-58.42012025603257,-67.93303899723536,-73.76581955314728,-69.54820977087502,-84.1263348123373,-70.93359885537217,-82.7997787769412,-87.32976524152969,-88.1598816110128,-90.68749282420997,-87.72927684686583,-77.02192456410145,-86.68596001042339,-72.20667016925218,,-94.1751134982831,-87.1811693578732,-92.09598182861659,,,,,,,,,,,-93.55704340475043,,,,,,,,,,-93.56326335869741,,,,-91.54200923470906,,,,,,,,,,,,,,,,,,,,,,,-94.93273298419189,,,,,,,,-92.19381169986957,,-94.70912245236389,,,,,-93.74152456805518,-90.85108238736666,,,-92.49873996855601,,,,,-92.23565567271567,,,,,-94.67058410449866,,,,,,,,-94.54871451240174,,,,,,,-90.93357908759741,,-93.1061447220386,,,,,,
2021.05.19 17:37:44,32.04,-11.759999,-24.9,0.045489833,1.922544,10.486604,0.1826487,0.06536258,0.21502456,-0.181318119,-0.004337872,-1.788227677,1004.10376,123.54572788774743,47.45427211225257,-77.44153706781499,-67.93004237842686,-84.68396571805526,-73.00834622271653,-80.50856210466182,-45.605256185661325,-51.32830694350269,-57.82282302865505,-82.77567184865423,-64.59270337362928,-85.59519657188626,-91.8724011465213,,-71.75425268993996,-90.86461646844552,-85.29738887667955,,-70.16756085511948,-86.80803829292573,-94.5399596776659,-78.28792260147118,-70.66740864444094,-84.56378737861398,-38.451097570364595,-58.42012025603257,-67.93303899723536,-73.76581955314728,-69.54820977087502,-84.1263348123373,-70.93359885537217,-82.7997787769412,-87.32976524152969,-88.1598816110128,-90.68749282420997,-87.72927684686583,-77.02192456410145,-86.68596001042339,-72.20667016925218,,-94.1751134982831,-87.1811693578732,-92.09598182861659,,,,,,,,,,,-93.55704340475043,,,,,,,,,,-93.56326335869741,,,,-91.54200923470906,,,,,,,,,,,,,,,,,,,,,,,-94.93273298419189,,,,,,,,-92.19381169986957,,-94.70912245236389,,,,,-93.74152456805518,-90.85108238736666,,,-92.49873996855601,,,,,-92.23565567271567,,,,,-94.67058410449866,,,,,,,,-94.54871451240174,,,,,,,-90.93357908759741,,-93.1061447220386,,,,,,
2021.05.19 17:37:44,31.619999,-12.42,-24.66,-0.14844051,1.7070658,10.295067,0.096516706,0.07269296,0.2284636,-0.16430214,0.014417607,-1.82567966,1004.10376,123.53345026309195,47.46654973690804,-77.44153706781499,-67.93004237842686,-84.68396571805526,-73.00834622271653,-80.50856210466182,-45.605256185661325,-51.32830694350269,-57.82282302865505,-82.77567184865423,-64.59270337362928,-85.59519657188626,-91.8724011465213,,-71.75425268993996,-90.86461646844552,-85.29738887667955,,-70.16756085511948,-86.80803829292573,-94.5399596776659,-78.28792260147118,-70.66740864444094,-84.56378737861398,-38.451097570364595,-58.42012025603257,-67.93303899723536,-73.76581955314728,-69.54820977087502,-84.1263348123373,-70.93359885537217,-82.7997787769412,-87.32976524152969,-88.1598816110128,-90.68749282420997,-87.72927684686583,-77.02192456410145,-86.68596001042339,-72.20667016925218,,-94.1751134982831,-87.1811693578732,-92.09598182861659,,,,,,,,,,,-93.55704340475043,,,,,,,,,,-93.56326335869741,,,,-91.54200923470906,,,,,,,,,,,,,,,,,,,,,,,-94.93273298419189,,,,,,,,-92.19381169986957,,-94.70912245236389,,,,,-93.74152456805518,-90.85108238736666,,,-92.49873996855601,,,,,-92.23565567271567,,,,,-94.67058410449866,,,,,,,,-94.54871451240174,,,,,,,-90.93357908759741,,-93.1061447220386,,,,,,
2021.05.19 17:37:44,30.9,-12.42,-24.779999,-0.15562311,1.3503298,12.306197,-0.1863139,0.031154128,0.1863139,-0.109281734,0.01264524,-1.874971747,1004.1023,123.52117263843648,47.47882736156352,-77.44153706781499,-67.93004237842686,-84.68396571805526,-73.00834622271653,-80.50856210466182,-45.605256185661325,-51.32830694350269,-57.82282302865505,-82.77567184865423,-64.59270337362928,-85.59519657188626,-91.8724011465213,,-71.75425268993996,-90.86461646844552,-85.29738887667955,,-70.16756085511948,-86.80803829292573,-94.5399596776659,-78.28792260147118,-70.66740864444094,-84.56378737861398,-38.451097570364595,-58.42012025603257,-67.93303899723536,-73.76581955314728,-69.54820977087502,-84.1263348123373,-70.93359885537217,-82.7997787769412,-87.32976524152969,-88.1598816110128,-90.68749282420997,-87.72927684686583,-77.02192456410145,-86.68596001042339,-72.20667016925218,,-94.1751134982831,-87.1811693578732,-92.09598182861659,,,,,,,,,,,-93.55704340475043,,,,,,,,,,-93.56326335869741,,,,-91.54200923470906,,,,,,,,,,,,,,,,,,,,,,,-94.93273298419189,,,,,,,,-92.19381169986957,,-94.70912245236389,,,,,-93.74152456805518,-90.85108238736666,,,-92.49873996855601,,,,,-92.23565567271567,,,,,-94.67058410449866,,,,,,,,-94.54871451240174,,,,,,,-90.93357908759741,,-93.1061447220386,,,,,,
2021.05.19 17:37:44,31.08,-13.5,-23.76,-1.127669,0.4213795,12.093113,-0.07513642,0.008552114,0.12217305,-0.034680165,0.092979982,-1.983146071,1004.1023,123.508895013781,47.49110498621899,-77.44153706781499,-67.93004237842686,-84.68396571805526,-73.00834622271653,-80.50856210466182,-45.605256185661325,-51.32830694350269,-57.82282302865505,-82.77567184865423,-64.59270337362928,-85.59519657188626,-91.8724011465213,,-71.75425268993996,-90.86461646844552,-85.29738887667955,,-70.16756085511948,-86.80803829292573,-94.5399596776659,-78.28792260147118,-70.66740864444094,-84.56378737861398,-38.451097570364595,-58.42012025603257,-67.93303899723536,-73.76581955314728,-69.54820977087502,-84.1263348123373,-70.93359885537217,-82.7997787769412,-87.32976524152969,-88.1598816110128,-90.68749282420997,-87.72927684686583,-77.02192456410145,-86.68596001042339,-72.20667016925218,,-94.1751134982831,-87.1811693578732,-92.09598182861659,,,,,,,,,,,-93.55704340475043,,,,,,,,,,-93.56326335869741,,,,-91.54200923470906,,,,,,,,,,,,,,,,,,,,,,,-94.93273298419189,,,,,,,,-92.19381169986957,,-94.70912245236389,,,,,-93.74152456805518,-90.85108238736666,,,-92.49873996855601,,,,,-92.23565567271567,,,,,-94.67058410449866,,,,,,,,-94.54871451240174,,,,,,,-90.93357908759741,,-93.1061447220386,,,,,,
2021.05.19 17:37:44,31.019999,-13.86,-23.22,-0.8810662,0.36631286,9.411607,0.31215215,-0.081855945,0.2828306,-0.038732577,0.093342803,-1.991276503,1004.1023,123.49661738912553,47.50338261087447,-77.44153706781499,-67.93004237842686,-84.68396571805526,-73.00834622271653,-80.50856210466182,-45.605256185661325,-51.32830694350269,-57.82282302865505,-82.77567184865423,-64.59270337362928,-85.59519657188626,-91.8724011465213,,-71.75425268993996,-90.86461646844552,-85.29738887667955,,-70.16756085511948,-86.80803829292573,-94.5399596776659,-78.28792260147118,-70.66740864444094,-84.56378737861398,-38.451097570364595,-58.42012025603257,-67.93303899723536,-73.76581955314728,-69.54820977087502,-84.1263348123373,-70.93359885537217,-82.7997787769412,-87.32976524152969,-88.1598816110128,-90.68749282420997,-87.72927684686583,-77.02192456410145,-86.68596001042339,-72.20667016925218,,-94.1751134982831,-87.1811693578732,-92.09598182861659,,,,,,,,,,,-93.55704340475043,,,,,,,,,,-93.56326335869741,,,,-91.54200923470906,,,,,,,,,,,,,,,,,,,,,,,-94.93273298419189,,,,,,,,-92.19381169986957,,-94.70912245236389,,,,,-93.74152456805518,-90.85108238736666,,,-92.49873996855601,,,,,-92.23565567271567,,,,,-94.67058410449866,,,,,,,,-94.54871451240174,,,,,,,-90.93357908759741,,-93.1061447220386,,,,,,
2021.05.19 17:37:44,30.779999,-13.799999,-22.74,-0.61770403,0.47165772,9.3733,0.31703907,-0.12217305,0.3036,-0.050168246,0.065805234,-1.976302028,1004.1023,123.48433976447006,47.51566023552994,-77.44153706781499,-67.93004237842686,-84.68396571805526,-73.00834622271653,-80.50856210466182,-45.605256185661325,-51.32830694350269,-57.82282302865505,-82.77567184865423,-64.59270337362928,-85.59519657188626,-91.8724011465213,,-71.75425268993996,-90.86461646844552,-85.29738887667955,,-70.16756085511948,-86.80803829292573,-94.5399596776659,-78.28792260147118,-70.66740864444094,-84.56378737861398,-38.451097570364595,-58.42012025603257,-67.93303899723536,-73.76581955314728,-69.54820977087502,-84.1263348123373,-70.93359885537217,-82.7997787769412,-87.32976524152969,-88.1598816110128,-90.68749282420997,-87.72927684686583,-77.02192456410145,-86.68596001042339,-72.20667016925218,,-94.1751134982831,-87.1811693578732,-92.09598182861659,,,,,,,,,,,-93.55704340475043,,,,,,,,,,-93.56326335869741,,,,-91.54200923470906,,,,,,,,,,,,,,,,,,,,,,,-94.93273298419189,,,,,,,,-92.19381169986957,,-94.70912245236389,,,,,-93.74152456805518,-90.85108238736666,,,-92.49873996855601,,,,,-92.23565567271567,,,,,-94.67058410449866,,,,,,,,-94.54871451240174,,,,,,,-90.93357908759741,,-93.1061447220386,,,,,,
2021.05.19 17:37:44,31.08,-14.7,-22.14,-0.47884035,0.45729253,8.702923,0.3659083,-0.023823744,0.23823744,-0.052417289,0.054965217,-1.994056821,1004.10596,123.47206213981458,47.52793786018542,-77.44153706781499,-67.93004237842686,-84.68396571805526,-73.00834622271653,-80.50856210466182,-45.605256185661325,-51.32830694350269,-57.82282302865505,-82.77567184865423,-64.59270337362928,-85.59519657188626,-91.8724011465213,,-71.75425268993996,-90.86461646844552,-85.29738887667955,,-70.16756085511948,-86.80803829292573,-94.5399596776659,-78.28792260147118,-70.66740864444094,-84.56378737861398,-38.451097570364595,-58.42012025603257,-67.93303899723536,-73.76581955314728,-69.54820977087502,-84.1263348123373,-70.93359885537217,-82.7997787769412,-87.32976524152969,-88.1598816110128,-90.68749282420997,-87.72927684686583,-77.02192456410145,-86.68596001042339,-72.20667016925218,,-94.1751134982831,-87.1811693578732,-92.09598182861659,,,,,,,,,,,-93.55704340475043,,,,,,,,,,-93.56326335869741,,,,-91.54200923470906,,,,,,,,,,,,,,,,,,,,,,,-94.93273298419189,,,,,,,,-92.19381169986957,,-94.70912245236389,,,,,-93.74152456805518,-90.85108238736666,,,-92.49873996855601,,,,,-92.23565567271567,,,,,-94.67058410449866,,,,,,,,-94.54871451240174,,,,,,,-90.93357908759741,,-93.1061447220386,,,,,,
2021.05.19 17:37:44,30.42,-14.46,-22.98,-0.4189853,0.6512229,8.403648,0.29749137,0.02687807,0.1386664,-0.077242754,0.049816303,-1.975640893,1004.10596,123.45978451515911,47.54021548484089,-77.44153706781499,-67.93004237842686,-84.68396571805526,-73.00834622271653,-80.50856210466182,-45.605256185661325,-51.32830694350269,-57.82282302865505,-82.77567184865423,-64.59270337362928,-85.59519657188626,-91.8724011465213,,-71.75425268993996,-90.86461646844552,-85.29738887667955,,-70.16756085511948,-86.80803829292573,-94.5399596776659,-78.28792260147118,-70.66740864444094,-84.56378737861398,-38.451097570364595,-58.42012025603257,-67.93303899723536,-73.76581955314728,-69.54820977087502,-84.1263348123373,-70.93359885537217,-82.7997787769412,-87.32976524152969,-88.1598816110128,-90.68749282420997,-87.72927684686583,-77.02192456410145,-86.68596001042339,-72.20667016925218,,-94.1751134982831,-87.1811693578732,-92.09598182861659,,,,,,,,,,,-93.55704340475043,,,,,,,,,,-93.56326335869741,,,,-91.54200923470906,,,,,,,,,,,,,,,,,,,,,,,-94.93273298419189,,,,,,,,-92.19381169986957,,-94.70912245236389,,,,,-93.74152456805518,-90.85108238736666,,,-92.49873996855601,,,,,-92.23565567271567,,,,,-94.67058410449866,,,,,,,,-94.54871451240174,,,,,,,-90.93357908759741,,-93.1061447220386,,,,,,
2021.05.19 17:37:44,30.24,-15.059999,-22.8,-0.7613561,0.6655881,9.131485,0.118507855,-0.06963864,-0.005497787,-0.072509974,0.08318463,-2.007807016,1004.10596,123.44750689050363,47.55249310949637,-77.44153706781499,-67.93004237842686,-84.68396571805526,-73.00834622271653,-80.50856210466182,-45.605256185661325,-51.32830694350269,-57.82282302865505,-82.77567184865423,-64.59270337362928,-85.59519657188626,-91.8724011465213,,-71.75425268993996,-90.86461646844552,-85.29738887667955,,-70.16756085511948,-86.80803829292573,-94.5399596776659,-78.28792260147118,-70.66740864444094,-84.56378737861398,-38.451097570364595,-58.42012025603257,-67.93303899723536,-73.76581955314728,-69.54820977087502,-84.1263348123373,-70.93359885537217,-82.7997787769412,-87.32976524152969,-88.1598816110128,-90.68749282420997,-87.72927684686583,-77.02192456410145,-86.68596001042339,-72.20667016925218,,-94.1751134982831,-87.1811693578732,-92.09598182861659,,,,,,,,,,,-93.55704340475043,,,,,,,,,,-93.56326335869741,,,,-91.54200923470906,,,,,,,,,,,,,,,,,,,,,,,-94.93273298419189,,,,,,,,-92.19381169986957,,-94.70912245236389,,,,,-93.74152456805518,-90.85108238736666,,,-92.49873996855601,,,,,-92.23565567271567,,,,,-94.67058410449866,,,,,,,,-94.54871451240174,,,,,,,-90.93357908759741,,-93.1061447220386,,,,,,
2021.05.19 17:37:45,30.539999,-15.42,-22.859999,-0.7398083,0.7422025,9.390059,-0.009773844,0.007330383,-0.047036625,-0.078634635,0.078623913,-2.008101463,1004.10596,123.43522926584816,47.56477073415184,-66.36916438497339,-72.64876140253797,-73.05551126926211,-65.90703826524074,-76.48848763489019,-44.379173776969594,-51.43786375930012,-55.08409668470303,-72.94127190284725,-66.66763121153167,-78.69914279631398,-79.42868781392586,-89.51013074315715,-82.86129171714802,,,-93.36976072162481,-72.99815831448906,,,-71.20500686532941,-75.92415169933146,-86.70961511509523,-39.770314434426986,-45.880346606216506,-52.82328033006195,-69.90030665745927,-57.61254344259255,-86.69987494201861,-84.05557383821554,,-94.33094142367993,,-93.41547788287475,,-71.71334192179138,-80.37523210667891,-72.48328522686772,-90.86403879221822,,-81.10449292304502,-91.75872341734654,-87.71774748711563,-78.17448642889579,-86.75229666442506,,,,,-89.31305451559456,,,,,,,-91.2859386211316,,,-94.9655694675122,,,,,,-93.50106375573554,,,,,-93.9145328633145,,,,,,,,,,-93.85672501285373,,,,,,,,,,,,,,,,,,,,,,,,,,,,,,,,,,,,,,,,,,,,,,,,,,,,,,-91.11072884522486,,,,,,,
2021.05.19 17:37:45,30.3,-15.12,-23.22,-0.533907,1.1061212,8.813056,-0.016493361,0.02076942,-0.01038471,-0.124630384,0.060507417,-1.961947083,1004.1101,123.42295164119268,47.57704835880732,-66.36916438497339,-72.64876140253797,-73.05551126926211,-65.90703826524074,-76.48848763489019,-44.379173776969594,-51.43786375930012,-55.08409668470303,-72.94127190284725,-66.66763121153167,-78.69914279631398,-79.42868781392586,-89.51013074315715,-82.86129171714802,,,-93.36976072162481,-72.99815831448906,,,-71.20500686532941,-75.92415169933146,-86.70961511509523,-39.770314434426986,-45.880346606216506,-52.82328033006195,-69.90030665745927,-57.61254344259255,-86.69987494201861,-84.05557383821554,,-94.33094142367993,,-93.41547788287475,,-71.71334192179138,-80.37523210667891,-72.48328522686772,-90.86403879221822,,-81.10449292304502,-91.75872341734654,-87.71774748711563,-78.17448642889579,-86.75229666442506,,,,,-89.31305451559456,,,,,,,-91.2859386211316,,,-94.9655694675122,,,,,,-93.50106375573554,,,,,-93.9145328633145,,,,,,,,,,-93.85672501285373,,,,,,,,,,,,,,,,,,,,,,,,,,,,,,,,,,,,,,,,,,,,,,,,,,,,,,-91.11072884522486,,,,,,,
2021.05.19 17:37:45,30.72,-15.599999,-22.439999,-0.3854665,1.520318,7.747637,0.030543262,0.001221731,0.005497787,-0.193534404,0.04971179,-1.91816318,1004.1101,123.41067401653721,47.58932598346279,-66.36916438497339,-72.64876140253797,-73.05551126926211,-65.90703826524074,-76.48848763489019,-44.379173776969594,-51.43786375930012,-55.08409668470303,-72.94127190284725,-66.66763121153167,-78.69914279631398,-79.42868781392586,-89.51013074315715,-82.86129171714802,,,-93.36976072162481,-72.99815831448906,,,-71.20500686532941,-75.92415169933146,-86.70961511509523,-39.770314434426986,-45.880346606216506,-52.82328033006195,-69.90030665745927,-57.61254344259255,-86.69987494201861,-84.05557383821554,,-94.33094142367993,,-93.41547788287475,,-71.71334192179138,-80.37523210667891,-72.48328522686772,-90.86403879221822,,-81.10449292304502,-91.75872341734654,-87.71774748711563,-78.17448642889579,-86.75229666442506,,,,,-89.31305451559456,,,,,,,-91.2859386211316,,,-94.9655694675122,,,,,,-93.50106375573554,,,,,-93.9145328633145,,,,,,,,,,-93.85672501285373,,,,,,,,,,,,,,,,,,,,,,,,,,,,,,,,,,,,,,,,,,,,,,,,,,,,,,-91.11072884522486,,,,,,,
2021.05.19 17:37:45,30.84,-15.9,-22.68,-0.6919243,1.2689269,8.475474,-0.1563815,-0.017104227,-0.076358154,-0.148128077,0.081457764,-1.965023756,1004.1101,123.39839639188173,47.60160360811827,-66.36916438497339,-72.64876140253797,-73.05551126926211,-65.90703826524074,-76.48848763489019,-44.379173776969594,-51.43786375930012,-55.08409668470303,-72.94127190284725,-66.66763121153167,-78.69914279631398,-79.42868781392586,-89.51013074315715,-82.86129171714802,,,-93.36976072162481,-72.99815831448906,,,-71.20500686532941,-75.92415169933146,-86.70961511509523,-39.770314434426986,-45.880346606216506,-52.82328033006195,-69.90030665745927,-57.61254344259255,-86.69987494201861,-84.05557383821554,,-94.33094142367993,,-93.41547788287475,,-71.71334192179138,-80.37523210667891,-72.48328522686772,-90.86403879221822,,-81.10449292304502,-91.75872341734654,-87.71774748711563,-78.17448642889579,-86.75229666442506,,,,,-89.31305451559456,,,,,,,-91.2859386211316,,,-94.9655694675122,,,,,,-93.50106375573554,,,,,-93.9145328633145,,,,,,,,,,-93.85672501285373,,,,,,,,,,,,,,,,,,,,,,,,,,,,,,,,,,,,,,,,,,,,,,,,,,,,,,-91.11072884522486,,,,,,,
2021.05.19 17:37:45,30.72,-16.02,-22.98,-0.7589619,1.2785037,9.277532,-0.25595254,-0.105068825,-0.064751714,-0.136493608,0.081624687,-1.978471518,1004.1101,123.38611876722626,47.61388123277374,-66.36916438497339,-72.64876140253797,-73.05551126926211,-65.90703826524074,-76.48848763489019,-44.379173776969594,-51.43786375930012,-55.08409668470303,-72.94127190284725,-66.66763121153167,-78.69914279631398,-79.42868781392586,-89.51013074315715,-82.86129171714802,,,-93.36976072162481,-72.99815831448906,,,-71.20500686532941,-75.92415169933146,-86.70961511509523,-39.770314434426986,-45.880346606216506,-52.82328033006195,-69.90030665745927,-57.61254344259255,-86.69987494201861,-84.05557383821554,,-94.33094142367993,,-93.41547788287475,,-71.71334192179138,-80.37523210667891,-72.48328522686772,-90.86403879221822,,-81.10449292304502,-91.75872341734654,-87.71774748711563,-78.17448642889579,-86.75229666442506,,,,,-89.31305451559456,,,,,,,-91.2859386211316,,,-94.9655694675122,,,,,,-93.50106375573554,,,,,-93.9145328633145,,,,,,,,,,-93.85672501285373,,,,,,,,,,,,,,,,,,,,,,,,,,,,,,,,,,,,,,,,,,,,,,,,,,,,,,-91.11072884522486,,,,,,,
2021.05.19 17:37:45,30.359999,-15.66,-22.859999,-0.6703765,1.5466543,8.990228,-0.22785273,0.036651913,0.008552114,-0.169906899,0.074429497,-1.944273114,1004.11255,123.37384114257078,47.62615885742922,-66.36916438497339,-72.64876140253797,-73.05551126926211,-65.90703826524074,-76.48848763489019,-44.379173776969594,-51.43786375930012,-55.08409668470303,-72.94127190284725,-66.66763121153167,-78.69914279631398,-79.42868781392586,-89.51013074315715,-82.86129171714802,,,-93.36976072162481,-72.99815831448906,,,-71.20500686532941,-75.92415169933146,-86.70961511509523,-39.770314434426986,-45.880346606216506,-52.82328033006195,-69.90030665745927,-57.61254344259255,-86.69987494201861,-84.05557383821554,,-94.33094142367993,,-93.41547788287475,,-71.71334192179138,-80.37523210667891,-72.48328522686772,-90.86403879221822,,-81.10449292304502,-91.75872341734654,-87.71774748711563,-78.17448642889579,-86.75229666442506,,,,,-89.31305451559456,,,,,,,-91.2859386211316,,,-94.9655694675122,,,,,,-93.50106375573554,,,,,-93.9145328633145,,,,,,,,,,-93.85672501285373,,,,,,,,,,,,,,,,,,,,,,,,,,,,,,,,,,,,,,,,,,,,,,,,,,,,,,-91.11072884522486,,,,,,,
2021.05.19 17:37:45,30.3,-14.94,-23.64,-0.9504981,1.4030021,9.902418,-0.3182608,0.020158553,-0.002443461,-0.140110478,0.095693298,-1.949508071,1004.11255,123.36156351791531,47.63843648208469,-66.36916438497339,-72.64876140253797,-73.05551126926211,-65.90703826524074,-76.48848763489019,-44.379173776969594,-51.43786375930012,-55.08409668470303,-72.94127190284725,-66.66763121153167,-78.69914279631398,-79.42868781392586,-89.51013074315715,-82.86129171714802,,,-93.36976072162481,-72.99815831448906,,,-71.20500686532941,-75.92415169933146,-86.70961511509523,-39.770314434426986,-45.880346606216506,-52.82328033006195,-69.90030665745927,-57.61254344259255,-86.69987494201861,-84.05557383821554,,-94.33094142367993,,-93.41547788287475,,-71.71334192179138,-80.37523210667891,-72.48328522686772,-90.86403879221822,,-81.10449292304502,-91.75872341734654,-87.71774748711563,-78.17448642889579,-86.75229666442506,,,,,-89.31305451559456,,,,,,,-91.2859386211316,,,-94.9655694675122,,,,,,-93.50106375573554,,,,,-93.9145328633145,,,,,,,,,,-93.85672501285373,,,,,,,,,,,,,,,,,,,,,,,,,,,,,,,,,,,,,,,,,,,,,,,,,,,,,,-91.11072884522486,,,,,,,
2021.05.19 17:37:45,30.359999,-14.46,-23.46,-0.830788,1.5873557,9.799467,-0.21563543,-0.06169739,0.06352998,-0.160024762,0.084576651,-1.915245533,1004.11255,123.34928589325983,47.65071410674017,-66.36916438497339,-72.64876140253797,-73.05551126926211,-65.90703826524074,-76.48848763489019,-44.379173776969594,-51.43786375930012,-55.08409668470303,-72.94127190284725,-66.66763121153167,-78.69914279631398,-79.42868781392586,-89.51013074315715,-82.86129171714802,,,-93.36976072162481,-72.99815831448906,,,-71.20500686532941,-75.92415169933146,-86.70961511509523,-39.770314434426986,-45.880346606216506,-52.82328033006195,-69.90030665745927,-57.61254344259255,-86.69987494201861,-84.05557383821554,,-94.33094142367993,,-93.41547788287475,,-71.71334192179138,-80.37523210667891,-72.48328522686772,-90.86403879221822,,-81.10449292304502,-91.75872341734654,-87.71774748711563,-78.17448642889579,-86.75229666442506,,,,,-89.31305451559456,,,,,,,-91.2859386211316,,,-94.9655694675122,,,,,,-93.50106375573554,,,,,-93.9145328633145,,,,,,,,,,-93.85672501285373,,,,,,,,,,,,,,,,,,,,,,,,,,,,,,,,,,,,,,,,,,,,,,,,,,,,,,-91.11072884522486,,,,,,,
2021.05.19 17:37:45,30.119999,-13.799999,-23.22,-0.62728083,1.8626889,9.64145,-0.12583824,0.029321533,0.12767084,-0.190451741,0.064969279,-1.869605064,1004.11255,123.33700826860436,47.66299173139564,-66.36916438497339,-72.64876140253797,-73.05551126926211,-65.90703826524074,-76.48848763489019,-44.379173776969594,-51.43786375930012,-55.08409668470303,-72.94127190284725,-66.66763121153167,-78.69914279631398,-79.42868781392586,-89.51013074315715,-82.86129171714802,,,-93.36976072162481,-72.99815831448906,,,-71.20500686532941,-75.92415169933146,-86.70961511509523,-39.770314434426986,-45.880346606216506,-52.82328033006195,-69.90030665745927,-57.61254344259255,-86.69987494201861,-84.05557383821554,,-94.33094142367993,,-93.41547788287475,,-71.71334192179138,-80.37523210667891,-72.48328522686772,-90.86403879221822,,-81.10449292304502,-91.75872341734654,-87.71774748711563,-78.17448642889579,-86.75229666442506,,,,,-89.31305451559456,,,,,,,-91.2859386211316,,,-94.9655694675122,,,,,,-93.50106375573554,,,,,-93.9145328633145,,,,,,,,,,-93.85672501285373,,,,,,,,,,,,,,,,,,,,,,,,,,,,,,,,,,,,,,,,,,,,,,,,,,,,,,-91.11072884522486,,,,,,,
2021.05.19 17:37:45,30.119999,-13.799999,-23.279999,-0.32321724,1.9919758,9.888053,-0.069027774,-0.002443461,0.1459968,-0.198688745,0.032676019,-1.860332847,1004.1033,123.32473064394888,47.67526935605112,-66.36916438497339,-72.64876140253797,-73.05551126926211,-65.90703826524074,-76.48848763489019,-44.379173776969594,-51.43786375930012,-55.08409668470303,-72.94127190284725,-66.66763121153167,-78.69914279631398,-79.42868781392586,-89.51013074315715,-82.86129171714802,,,-93.36976072162481,-72.99815831448906,,,-71.20500686532941,-75.92415169933146,-86.70961511509523,-39.770314434426986,-45.880346606216506,-52.82328033006195,-69.90030665745927,-57.61254344259255,-86.69987494201861,-84.05557383821554,,-94.33094142367993,,-93.41547788287475,,-71.71334192179138,-80.37523210667891,-72.48328522686772,-90.86403879221822,,-81.10449292304502,-91.75872341734654,-87.71774748711563,-78.17448642889579,-86.75229666442506,,,,,-89.31305451559456,,,,,,,-91.2859386211316,,,-94.9655694675122,,,,,,-93.50106375573554,,,,,-93.9145328633145,,,,,,,,,,-93.85672501285373,,,,,,,,,,,,,,,,,,,,,,,,,,,,,,,,,,,,,,,,,,,,,,,,,,,,,,-91.11072884522486,,,,,,,
2021.05.19 17:37:45,29.939999,-14.28,-23.16,-0.4261679,1.757344,10.28549,-0.007330383,-0.022602014,0.09468412,-0.169080272,0.041410208,-1.902522326,1004.1033,123.31245301929341,47.68754698070659,-66.36916438497339,-72.64876140253797,-73.05551126926211,-65.90703826524074,-76.48848763489019,-44.379173776969594,-51.43786375930012,-55.08409668470303,-72.94127190284725,-66.66763121153167,-78.69914279631398,-79.42868781392586,-89.51013074315715,-82.86129171714802,,,-93.36976072162481,-72.99815831448906,,,-71.20500686532941,-75.92415169933146,-86.70961511509523,-39.770314434426986,-45.880346606216506,-52.82328033006195,-69.90030665745927,-57.61254344259255,-86.69987494201861,-84.05557383821554,,-94.33094142367993,,-93.41547788287475,,-71.71334192179138,-80.37523210667891,-72.48328522686772,-90.86403879221822,,-81.10449292304502,-91.75872341734654,-87.71774748711563,-78.17448642889579,-86.75229666442506,,,,,-89.31305451559456,,,,,,,-91.2859386211316,,,-94.9655694675122,,,,,,-93.50106375573554,,,,,-93.9145328633145,,,,,,,,,,-93.85672501285373,,,,,,,,,,,,,,,,,,,,,,,,,,,,,,,,,,,,,,,,,,,,,,,,,,,,,,-91.11072884522486,,,,,,,
2021.05.19 17:37:45,29.16,-14.34,-23.46,-0.4333505,1.7741034,10.338163,0.06841691,-0.003054326,0.07941248,-0.169805557,0.041893028,-1.911047935,1004.1033,123.30017539463793,47.69982460536207,-66.36916438497339,-72.64876140253797,-73.05551126926211,-65.90703826524074,-76.48848763489019,-44.379173776969594,-51.43786375930012,-55.08409668470303,-72.94127190284725,-66.66763121153167,-78.69914279631398,-79.42868781392586,-89.51013074315715,-82.86129171714802,,,-93.36976072162481,-72.99815831448906,,,-71.20500686532941,-75.92415169933146,-86.70961511509523,-39.770314434426986,-45.880346606216506,-52.82328033006195,-69.90030665745927,-57.61254344259255,-86.69987494201861,-84.05557383821554,,-94.33094142367993,,-93.41547788287475,,-71.71334192179138,-80.37523210667891,-72.48328522686772,-90.86403879221822,,-81.10449292304502,-91.75872341734654,-87.71774748711563,-78.17448642889579,-86.75229666442506,,,,,-89.31305451559456,,,,,,,-91.2859386211316,,,-94.9655694675122,,,,,,-93.50106375573554,,,,,-93.9145328633145,,,,,,,,,,-93.85672501285373,,,,,,,,,,,,,,,,,,,,,,,,,,,,,,,,,,,,,,,,,,,,,,,,,,,,,,-91.11072884522486,,,,,,,
2021.05.19 17:37:45,29.039999,-14.82,-23.4,-0.01436521,1.7621324,9.928755,0.10262536,0.061086524,0.06719518,-0.17564854,0.001446828,-1.917979479,1004.1033,123.28789776998246,47.71210223001754,-66.36916438497339,-72.64876140253797,-73.05551126926211,-65.90703826524074,-76.48848763489019,-44.379173776969594,-51.43786375930012,-55.08409668470303,-72.94127190284725,-66.66763121153167,-78.69914279631398,-79.42868781392586,-89.51013074315715,-82.86129171714802,,,-93.36976072162481,-72.99815831448906,,,-71.20500686532941,-75.92415169933146,-86.70961511509523,-39.770314434426986,-45.880346606216506,-52.82328033006195,-69.90030665745927,-57.61254344259255,-86.69987494201861,-84.05557383821554,,-94.33094142367993,,-93.41547788287475,,-71.71334192179138,-80.37523210667891,-72.48328522686772,-90.86403879221822,,-81.10449292304502,-91.75872341734654,-87.71774748711563,-78.17448642889579,-86.75229666442506,,,,,-89.31305451559456,,,,,,,-91.2859386211316,,,-94.9655694675122,,,,,,-93.50106375573554,,,,,-93.9145328633145,,,,,,,,,,-93.85672501285373,,,,,,,,,,,,,,,,,,,,,,,,,,,,,,,,,,,,,,,,,,,,,,,,,,,,,,-91.11072884522486,,,,,,,
2021.05.19 17:37:45,29.099998,-15.0,-23.58,0.1436521,1.0342951,11.109096,-0.018325957,0.040317107,-0.04153884,-0.092828102,-0.012930313,-1.980953932,1004.1072,123.27562014532698,47.72437985467302,-66.36916438497339,-72.64876140253797,-73.05551126926211,-65.90703826524074,-76.48848763489019,-44.379173776969594,-51.43786375930012,-55.08409668470303,-72.94127190284725,-66.66763121153167,-78.69914279631398,-79.42868781392586,-89.51013074315715,-82.86129171714802,,,-93.36976072162481,-72.99815831448906,,,-71.20500686532941,-75.92415169933146,-86.70961511509523,-39.770314434426986,-45.880346606216506,-52.82328033006195,-69.90030665745927,-57.61254344259255,-86.69987494201861,-84.05557383821554,,-94.33094142367993,,-93.41547788287475,,-71.71334192179138,-80.37523210667891,-72.48328522686772,-90.86403879221822,,-81.10449292304502,-91.75872341734654,-87.71774748711563,-78.17448642889579,-86.75229666442506,,,,,-89.31305451559456,,,,,,,-91.2859386211316,,,-94.9655694675122,,,,,,-93.50106375573554,,,,,-93.9145328633145,,,,,,,,,,-93.85672501285373,,,,,,,,,,,,,,,,,,,,,,,,,,,,,,,,,,,,,,,,,,,,,,,,,,,,,,-91.11072884522486,,,,,,,
2021.05.19 17:37:45,28.92,-15.0,-23.519999,-0.7541735,0.2753332,11.097125,-0.15577064,0.115453534,-0.2565634,-0.024749063,0.067856818,-2.055834532,1004.1072,123.26334252067151,47.736657479328485,-66.36916438497339,-72.64876140253797,-73.05551126926211,-65.90703826524074,-76.48848763489019,-44.379173776969594,-51.43786375930012,-55.08409668470303,-72.94127190284725,-66.66763121153167,-78.69914279631398,-79.42868781392586,-89.51013074315715,-82.86129171714802,,,-93.36976072162481,-72.99815831448906,,,-71.20500686532941,-75.92415169933146,-86.70961511509523,-39.770314434426986,-45.880346606216506,-52.82328033006195,-69.90030665745927,-57.61254344259255,-86.69987494201861,-84.05557383821554,,-94.33094142367993,,-93.41547788287475,,-71.71334192179138,-80.37523210667891,-72.48328522686772,-90.86403879221822,,-81.10449292304502,-91.75872341734654,-87.71774748711563,-78.17448642889579,-86.75229666442506,,,,,-89.31305451559456,,,,,,,-91.2859386211316,,,-94.9655694675122,,,,,,-93.50106375573554,,,,,-93.9145328633145,,,,,,,,,,-93.85672501285373,,,,,,,,,,,,,,,,,,,,,,,,,,,,,,,,,,,,,,,,,,,,,,,,,,,,,,-91.11072884522486,,,,,,,
2021.05.19 17:37:45,29.22,-14.58,-23.34,-0.5650316,0.46686932,9.524135,-0.029321533,0.07696902,-0.15454891,-0.048894566,0.059256837,-2.018367529,1004.1072,123.25106489601603,47.74893510398396,-66.36916438497339,-72.64876140253797,-73.05551126926211,-65.90703826524074,-76.48848763489019,-44.379173776969594,-51.43786375930012,-55.08409668470303,-72.94127190284725,-66.66763121153167,-78.69914279631398,-79.42868781392586,-89.51013074315715,-82.86129171714802,,,-93.36976072162481,-72.99815831448906,,,-71.20500686532941,-75.92415169933146,-86.70961511509523,-39.770314434426986,-45.880346606216506,-52.82328033006195,-69.90030665745927,-57.61254344259255,-86.69987494201861,-84.05557383821554,,-94.33094142367993,,-93.41547788287475,,-71.71334192179138,-80.37523210667891,-72.48328522686772,-90.86403879221822,,-81.10449292304502,-91.75872341734654,-87.71774748711563,-78.17448642889579,-86.75229666442506,,,,,-89.31305451559456,,,,,,,-91.2859386211316,,,-94.9655694675122,,,,,,-93.50106375573554,,,,,-93.9145328633145,,,,,,,,,,-93.85672501285373,,,,,,,,,,,,,,,,,,,,,,,,,,,,,,,,,,,,,,,,,,,,,,,,,,,,,,-91.11072884522486,,,,,,,
2021.05.19 17:37:45,28.98,-13.92,-23.58,-0.15322891,0.5410896,8.846576,0.052534413,-0.026267206,0.016493361,-0.061078493,0.01731897,-1.981033325,1004.1072,123.23878727136056,47.761212728639435,-66.36916438497339,-72.64876140253797,-73.05551126926211,-65.90703826524074,-76.48848763489019,-44.379173776969594,-51.43786375930012,-55.08409668470303,-72.94127190284725,-66.66763121153167,-78.69914279631398,-79.42868781392586,-89.51013074315715,-82.86129171714802,,,-93.36976072162481,-72.99815831448906,,,-71.20500686532941,-75.92415169933146,-86.70961511509523,-39.770314434426986,-45.880346606216506,-52.82328033006195,-69.90030665745927,-57.61254344259255,-86.69987494201861,-84.05557383821554,,-94.33094142367993,,-93.41547788287475,,-71.71334192179138,-80.37523210667891,-72.48328522686772,-90.86403879221822,,-81.10449292304502,-91.75872341734654,-87.71774748711563,-78.17448642889579,-86.75229666442506,,,,,-89.31305451559456,,,,,,,-91.2859386211316,,,-94.9655694675122,,,,,,-93.50106375573554,,,,,-93.9145328633145,,,,,,,,,,-93.85672501285373,,,,,,,,,,,,,,,,,,,,,,,,,,,,,,,,,,,,,,,,,,,,,,,,,,,,,,-91.11072884522486,,,,,,,
2021.05.19 17:37:45,29.099998,-14.28,-23.16,0.1604115,0.15801731,10.864887,-0.08307768,-0.23640485,-0.012217305,-0.014541241,-0.01476314,-2.013263464,1004.1006,123.22650964670508,47.77349035329491,-66.36916438497339,-72.64876140253797,-73.05551126926211,-65.90703826524074,-76.48848763489019,-44.379173776969594,-51.43786375930012,-55.08409668470303,-72.94127190284725,-66.66763121153167,-78.69914279631398,-79.42868781392586,-89.51013074315715,-82.86129171714802,,,-93.36976072162481,-72.99815831448906,,,-71.20500686532941,-75.92415169933146,-86.70961511509523,-39.770314434426986,-45.880346606216506,-52.82328033006195,-69.90030665745927,-57.61254344259255,-86.69987494201861,-84.05557383821554,,-94.33094142367993,,-93.41547788287475,,-71.71334192179138,-80.37523210667891,-72.48328522686772,-90.86403879221822,,-81.10449292304502,-91.75872341734654,-87.71774748711563,-78.17448642889579,-86.75229666442506,,,,,-89.31305451559456,,,,,,,-91.2859386211316,,,-94.9655694675122,,,,,,-93.50106375573554,,,,,-93.9145328633145,,,,,,,,,,-93.85672501285373,,,,,,,,,,,,,,,,,,,,,,,,,,,,,,,,,,,,,,,,,,,,,,,,,,,,,,-91.11072884522486,,,,,,,
2021.05.19 17:37:45,29.279999,-13.74,-23.279999,-0.11252748,0.045489833,10.84334,0.037873644,-0.14660765,-0.07086037,-0.004194936,0.010377194,-2.009977579,1004.1006,123.21423202204961,47.785767977950385,-66.36916438497339,-72.64876140253797,-73.05551126926211,-65.90703826524074,-76.48848763489019,-44.379173776969594,-51.43786375930012,-55.08409668470303,-72.94127190284725,-66.66763121153167,-78.69914279631398,-79.42868781392586,-89.51013074315715,-82.86129171714802,,,-93.36976072162481,-72.99815831448906,,,-71.20500686532941,-75.92415169933146,-86.70961511509523,-39.770314434426986,-45.880346606216506,-52.82328033006195,-69.90030665745927,-57.61254344259255,-86.69987494201861,-84.05557383821554,,-94.33094142367993,,-93.41547788287475,,-71.71334192179138,-80.37523210667891,-72.48328522686772,-90.86403879221822,,-81.10449292304502,-91.75872341734654,-87.71774748711563,-78.17448642889579,-86.75229666442506,,,,,-89.31305451559456,,,,,,,-91.2859386211316,,,-94.9655694675122,,,,,,-93.50106375573554,,,,,-93.9145328633145,,,,,,,,,,-93.85672501285373,,,,,,,,,,,,,,,,,,,,,,,,,,,,,,,,,,,,,,,,,,,,,,,,,,,,,,-91.11072884522486,,,,,,,
2021.05.19 17:37:45,29.039999,-13.679999,-23.64,-0.06464344,0.5386954,9.507375,0.14844026,-0.032375857,-0.040317107,-0.056598965,0.00679919,-1.973730206,1004.1006,123.20195439739413,47.79804560260586,-66.36916438497339,-72.64876140253797,-73.05551126926211,-65.90703826524074,-76.48848763489019,-44.379173776969594,-51.43786375930012,-55.08409668470303,-72.94127190284725,-66.66763121153167,-78.69914279631398,-79.42868781392586,-89.51013074315715,-82.86129171714802,,,-93.36976072162481,-72.99815831448906,,,-71.20500686532941,-75.92415169933146,-86.70961511509523,-39.770314434426986,-45.880346606216506,-52.82328033006195,-69.90030665745927,-57.61254344259255,-86.69987494201861,-84.05557383821554,,-94.33094142367993,,-93.41547788287475,,-71.71334192179138,-80.37523210667891,-72.48328522686772,-90.86403879221822,,-81.10449292304502,-91.75872341734654,-87.71774748711563,-78.17448642889579,-86.75229666442506,,,,,-89.31305451559456,,,,,,,-91.2859386211316,,,-94.9655694675122,,,,,,-93.50106375573554,,,,,-93.9145328633145,,,,,,,,,,-93.85672501285373,,,,,,,,,,,,,,,,,,,,,,,,,,,,,,,,,,,,,,,,,,,,,,,,,,,,,,-91.11072884522486,,,,,,,
2021.05.19 17:37:45,29.58,-13.92,-23.46,0.16280572,0.8762778,8.990228,0.10934488,-0.043982297,-0.03726278,-0.097147293,-0.018107209,-1.940660954,1004.1006,123.18967677273866,47.810323227261335,-66.36916438497339,-72.64876140253797,-73.05551126926211,-65.90703826524074,-76.48848763489019,-44.379173776969594,-51.43786375930012,-55.08409668470303,-72.94127190284725,-66.66763121153167,-78.69914279631398,-79.42868781392586,-89.51013074315715,-82.86129171714802,,,-93.36976072162481,-72.99815831448906,,,-71.20500686532941,-75.92415169933146,-86.70961511509523,-39.770314434426986,-45.880346606216506,-52.82328033006195,-69.90030665745927,-57.61254344259255,-86.69987494201861,-84.05557383821554,,-94.33094142367993,,-93.41547788287475,,-71.71334192179138,-80.37523210667891,-72.48328522686772,-90.86403879221822,,-81.10449292304502,-91.75872341734654,-87.71774748711563,-78.17448642889579,-86.75229666442506,,,,,-89.31305451559456,,,,,,,-91.2859386211316,,,-94.9655694675122,,,,,,-93.50106375573554,,,,,-93.9145328633145,,,,,,,,,,-93.85672501285373,,,,,,,,,,,,,,,,,,,,,,,,,,,,,,,,,,,,,,,,,,,,,,,,,,,,,,-91.11072884522486,,,,,,,
2021.05.19 17:37:45,29.4,-13.08,-23.64,-0.33279404,0.842759,8.949526,0.05375614,-0.06291912,-0.08857546,-0.093826666,0.037168536,-1.930147409,1004.1062,123.17739914808318,47.82260085191681,-66.36916438497339,-72.64876140253797,-73.05551126926211,-65.90703826524074,-76.48848763489019,-44.379173776969594,-51.43786375930012,-55.08409668470303,-72.94127190284725,-66.66763121153167,-78.69914279631398,-79.42868781392586,-89.51013074315715,-82.86129171714802,,,-93.36976072162481,-72.99815831448906,,,-71.20500686532941,-75.92415169933146,-86.70961511509523,-39.770314434426986,-45.880346606216506,-52.82328033006195,-69.90030665745927,-57.61254344259255,-86.69987494201861,-84.05557383821554,,-94.33094142367993,,-93.41547788287475,,-71.71334192179138,-80.37523210667891,-72.48328522686772,-90.86403879221822,,-81.10449292304502,-91.75872341734654,-87.71774748711563,-78.17448642889579,-86.75229666442506,,,,,-89.31305451559456,,,,,,,-91.2859386211316,,,-94.9655694675122,,,,,,-93.50106375573554,,,,,-93.9145328633145,,,,,,,,,,-93.85672501285373,,,,,,,,,,,,,,,,,,,,,,,,,,,,,,,,,,,,,,,,,,,,,,,,,,,,,,-91.11072884522486,,,,,,,
2021.05.19 17:37:45,29.4,-13.44,-23.64,-0.24181437,1.0390835,8.061277,0.108123146,0.001832596,-0.017715093,-0.128134266,0.029988037,-1.912446141,1004.1062,123.16512152342771,47.834878476572285,-66.36916438497339,-72.64876140253797,-73.05551126926211,-65.90703826524074,-76.48848763489019,-44.379173776969594,-51.43786375930012,-55.08409668470303,-72.94127190284725,-66.66763121153167,-78.69914279631398,-79.42868781392586,-89.51013074315715,-82.86129171714802,,,-93.36976072162481,-72.99815831448906,,,-71.20500686532941,-75.92415169933146,-86.70961511509523,-39.770314434426986,-45.880346606216506,-52.82328033006195,-69.90030665745927,-57.61254344259255,-86.69987494201861,-84.05557383821554,,-94.33094142367993,,-93.41547788287475,,-71.71334192179138,-80.37523210667891,-72.48328522686772,-90.86403879221822,,-81.10449292304502,-91.75872341734654,-87.71774748711563,-78.17448642889579,-86.75229666442506,,,,,-89.31305451559456,,,,,,,-91.2859386211316,,,-94.9655694675122,,,,,,-93.50106375573554,,,,,-93.9145328633145,,,,,,,,,,-93.85672501285373,,,,,,,,,,,,,,,,,,,,,,,,,,,,,,,,,,,,,,,,,,,,,,,,,,,,,,-91.11072884522486,,,,,,,
2021.05.19 17:37:45,29.22,-13.5,-23.4,0.33997664,1.3096284,8.389283,0.034208454,-0.055588737,0.01282817,-0.154732451,-0.040502947,-1.888656259,1004.1062,123.15284389877223,47.84715610122776,-66.36916438497339,-72.64876140253797,-73.05551126926211,-65.90703826524074,-76.48848763489019,-44.379173776969594,-51.43786375930012,-55.08409668470303,-72.94127190284725,-66.66763121153167,-78.69914279631398,-79.42868781392586,-89.51013074315715,-82.86129171714802,,,-93.36976072162481,-72.99815831448906,,,-71.20500686532941,-75.92415169933146,-86.70961511509523,-39.770314434426986,-45.880346606216506,-52.82328033006195,-69.90030665745927,-57.61254344259255,-86.69987494201861,-84.05557383821554,,-94.33094142367993,,-93.41547788287475,,-71.71334192179138,-80.37523210667891,-72.48328522686772,-90.86403879221822,,-81.10449292304502,-91.75872341734654,-87.71774748711563,-78.17448642889579,-86.75229666442506,,,,,-89.31305451559456,,,,,,,-91.2859386211316,,,-94.9655694675122,,,,,,-93.50106375573554,,,,,-93.9145328633145,,,,,,,,,,-93.85672501285373,,,,,,,,,,,,,,,,,,,,,,,,,,,,,,,,,,,,,,,,,,,,,,,,,,,,,,-91.11072884522486,,,,,,,
2021.05.19 17:37:45,29.16,-13.32,-23.519999,0.04309563,1.1779473,8.78672,-0.07513642,-0.006719518,-0.118507855,-0.133263811,-0.004904593,-1.902886748,1004.1062,123.14056627411676,47.859433725883235,-66.36916438497339,-72.64876140253797,-73.05551126926211,-65.90703826524074,-76.48848763489019,-44.379173776969594,-51.43786375930012,-55.08409668470303,-72.94127190284725,-66.66763121153167,-78.69914279631398,-79.42868781392586,-89.51013074315715,-82.86129171714802,,,-93.36976072162481,-72.99815831448906,,,-71.20500686532941,-75.92415169933146,-86.70961511509523,-39.770314434426986,-45.880346606216506,-52.82328033006195,-69.90030665745927,-57.61254344259255,-86.69987494201861,-84.05557383821554,,-94.33094142367993,,-93.41547788287475,,-71.71334192179138,-80.37523210667891,-72.48328522686772,-90.86403879221822,,-81.10449292304502,-91.75872341734654,-87.71774748711563,-78.17448642889579,-86.75229666442506,,,,,-89.31305451559456,,,,,,,-91.2859386211316,,,-94.9655694675122,,,,,,-93.50106375573554,,,,,-93.9145328633145,,,,,,,,,,-93.85672501285373,,,,,,,,,,,,,,,,,,,,,,,,,,,,,,,,,,,,,,,,,,,,,,,,,,,,,,-91.11072884522486,,,,,,,
2021.05.19 17:37:46,28.98,-13.559999,-23.46,-0.10534488,1.1420342,9.349358,-0.1020145,0.007330383,-0.15393804,-0.121541299,0.011267129,-1.923708081,1004.09985,123.12828864946128,47.87171135053871,-62.70349048313964,-57.68029768730486,-80.38957534878445,-71.71321261995783,-75.21559939265227,-46.56644243475069,-41.03788628141097,-56.00809735229809,-76.4177958304299,-50.94566436198552,-88.80861475613682,-73.10643094951324,-93.44231926175974,,,,-93.83239580337303,-55.96611998138471,,,-70.84678266915384,-79.16700413344554,-70.1904324919366,-37.725922794680244,-47.4360404958708,-61.69529075719732,-73.02339479144723,-54.77974004612734,-76.87619841817202,-71.76864619496426,,-93.41421484069484,,,-91.6987702815823,-65.14826622288497,-71.10020118641698,-69.96447960277094,-87.5164651836459,-88.76133116653509,-78.12672908116575,-90.04249082723358,-84.25244164326575,-82.28751515561166,-85.4678394864327,,,,,,,,,-94.76928567085925,,,,,,,,,-94.73874003671241,,,,,-92.99502955530285,,-94.78828618442596,,,,-93.62254861111649,,,,,,,,,,-93.56139390814344,,,,,,,,,,,,,,,,,,,,,,,,,,,,-93.90571167750458,,,,,-89.61665762328069,,,,,,,,,-92.91695381524818,,,,,,,,,,,,,,,,
2021.05.19 17:37:46,28.8,-13.32,-23.4,0.33997664,1.448492,9.344569,-0.03176499,-0.01038471,-0.08674286,-0.153684974,-0.036366228,-1.888481498,1004.09985,123.11601102480581,47.883988975194185,-62.70349048313964,-57.68029768730486,-80.38957534878445,-71.71321261995783,-75.21559939265227,-46.56644243475069,-41.03788628141097,-56.00809735229809,-76.4177958304299,-50.94566436198552,-88.80861475613682,-73.10643094951324,-93.44231926175974,,,,-93.83239580337303,-55.96611998138471,,,-70.84678266915384,-79.16700413344554,-70.1904324919366,-37.725922794680244,-47.4360404958708,-61.69529075719732,-73.02339479144723,-54.77974004612734,-76.87619841817202,-71.76864619496426,,-93.41421484069484,,,-91.6987702815823,-65.14826622288497,-71.10020118641698,-69.96447960277094,-87.5164651836459,-88.76133116653509,-78.12672908116575,-90.04249082723358,-84.25244164326575,-82.28751515561166,-85.4678394864327,,,,,,,,,-94.76928567085925,,,,,,,,,-94.73874003671241,,,,,-92.99502955530285,,-94.78828618442596,,,,-93.62254861111649,,,,,,,,,,-93.56139390814344,,,,,,,,,,,,,,,,,,,,,,,,,,,,-93.90571167750458,,,,,-89.61665762328069,,,,,,,,,-92.91695381524818,,,,,,,,,,,,,,,,
2021.05.19 17:37:46,29.46,-13.259999,-23.58,0.21068975,1.4508862,9.452309,-0.028099801,0.01160644,-0.1337795,-0.152269453,-0.022286076,-1.881629825,1004.09985,123.10373340015033,47.89626659984966,-62.70349048313964,-57.68029768730486,-80.38957534878445,-71.71321261995783,-75.21559939265227,-46.56644243475069,-41.03788628141097,-56.00809735229809,-76.4177958304299,-50.94566436198552,-88.80861475613682,-73.10643094951324,-93.44231926175974,,,,-93.83239580337303,-55.96611998138471,,,-70.84678266915384,-79.16700413344554,-70.1904324919366,-37.725922794680244,-47.4360404958708,-61.69529075719732,-73.02339479144723,-54.77974004612734,-76.87619841817202,-71.76864619496426,,-93.41421484069484,,,-91.6987702815823,-65.14826622288497,-71.10020118641698,-69.96447960277094,-87.5164651836459,-88.76133116653509,-78.12672908116575,-90.04249082723358,-84.25244164326575,-82.28751515561166,-85.4678394864327,,,,,,,,,-94.76928567085925,,,,,,,,,-94.73874003671241,,,,,-92.99502955530285,,-94.78828618442596,,,,-93.62254861111649,,,,,,,,,,-93.56139390814344,,,,,,,,,,,,,,,,,,,,,,,,,,,,-93.90571167750458,,,,,-89.61665762328069,,,,,,,,,-92.91695381524818,,,,,,,,,,,,,,,,
2021.05.19 17:37:46,29.519999,-13.08,-23.46,0.20590134,1.733402,9.184157,0.032375857,0.07513642,-0.1386664,-0.186498106,-0.022415431,-1.850469232,1004.09985,123.09145577549486,47.908544224505135,-62.70349048313964,-57.68029768730486,-80.38957534878445,-71.71321261995783,-75.21559939265227,-46.56644243475069,-41.03788628141097,-56.00809735229809,-76.4177958304299,-50.94566436198552,-88.80861475613682,-73.10643094951324,-93.44231926175974,,,,-93.83239580337303,-55.96611998138471,,,-70.84678266915384,-79.16700413344554,-70.1904324919366,-37.725922794680244,-47.4360404958708,-61.69529075719732,-73.02339479144723,-54.77974004612734,-76.87619841817202,-71.76864619496426,,-93.41421484069484,,,-91.6987702815823,-65.14826622288497,-71.10020118641698,-69.96447960277094,-87.5164651836459,-88.76133116653509,-78.12672908116575,-90.04249082723358,-84.25244164326575,-82.28751515561166,-85.4678394864327,,,,,,,,,-94.76928567085925,,,,,,,,,-94.73874003671241,,,,,-92.99502955530285,,-94.78828618442596,,,,-93.62254861111649,,,,,,,,,,-93.56139390814344,,,,,,,,,,,,,,,,,,,,,,,,,,,,-93.90571167750458,,,,,-89.61665762328069,,,,,,,,,-92.91695381524818,,,,,,,,,,,,,,,,
2021.05.19 17:37:46,29.88,-12.719999,-23.519999,0.06943185,1.8626889,9.3661175,0.048258353,0.022602014,-0.1386664,-0.196308583,-0.007412951,-1.828823686,1004.0884,123.07917815083938,47.92082184916061,-62.70349048313964,-57.68029768730486,-80.38957534878445,-71.71321261995783,-75.21559939265227,-46.56644243475069,-41.03788628141097,-56.00809735229809,-76.4177958304299,-50.94566436198552,-88.80861475613682,-73.10643094951324,-93.44231926175974,,,,-93.83239580337303,-55.96611998138471,,,-70.84678266915384,-79.16700413344554,-70.1904324919366,-37.725922794680244,-47.4360404958708,-61.69529075719732,-73.02339479144723,-54.77974004612734,-76.87619841817202,-71.76864619496426,,-93.41421484069484,,,-91.6987702815823,-65.14826622288497,-71.10020118641698,-69.96447960277094,-87.5164651836459,-88.76133116653509,-78.12672908116575,-90.04249082723358,-84.25244164326575,-82.28751515561166,-85.4678394864327,,,,,,,,,-94.76928567085925,,,,,,,,,-94.73874003671241,,,,,-92.99502955530285,,-94.78828618442596,,,,-93.62254861111649,,,,,,,,,,-93.56139390814344,,,,,,,,,,,,,,,,,,,,,,,,,,,,-93.90571167750458,,,,,-89.61665762328069,,,,,,,,,-92.91695381524818,,,,,,,,,,,,,,,,
2021.05.19 17:37:46,30.539999,-12.179999,-23.22,-0.25857377,1.6950948,10.395624,-0.015882496,-0.01282817,-0.17715092,-0.161586866,0.024868201,-1.836909294,1004.0884,123.06690052618391,47.933099473816085,-62.70349048313964,-57.68029768730486,-80.38957534878445,-71.71321261995783,-75.21559939265227,-46.56644243475069,-41.03788628141097,-56.00809735229809,-76.4177958304299,-50.94566436198552,-88.80861475613682,-73.10643094951324,-93.44231926175974,,,,-93.83239580337303,-55.96611998138471,,,-70.84678266915384,-79.16700413344554,-70.1904324919366,-37.725922794680244,-47.4360404958708,-61.69529075719732,-73.02339479144723,-54.77974004612734,-76.87619841817202,-71.76864619496426,,-93.41421484069484,,,-91.6987702815823,-65.14826622288497,-71.10020118641698,-69.96447960277094,-87.5164651836459,-88.76133116653509,-78.12672908116575,-90.04249082723358,-84.25244164326575,-82.28751515561166,-85.4678394864327,,,,,,,,,-94.76928567085925,,,,,,,,,-94.73874003671241,,,,,-92.99502955530285,,-94.78828618442596,,,,-93.62254861111649,,,,,,,,,,-93.56139390814344,,,,,,,,,,,,,,,,,,,,,,,,,,,,-93.90571167750458,,,,,-89.61665762328069,,,,,,,,,-92.91695381524818,,,,,,,,,,,,,,,,
2021.05.19 17:37:46,30.42,-12.059999,-23.1,-0.21308395,1.5011644,10.278308,0.04642576,-0.037873644,-0.16310102,-0.144995585,0.020728454,-1.84763217,1004.0884,123.05462290152843,47.94537709847156,-62.70349048313964,-57.68029768730486,-80.38957534878445,-71.71321261995783,-75.21559939265227,-46.56644243475069,-41.03788628141097,-56.00809735229809,-76.4177958304299,-50.94566436198552,-88.80861475613682,-73.10643094951324,-93.44231926175974,,,,-93.83239580337303,-55.96611998138471,,,-70.84678266915384,-79.16700413344554,-70.1904324919366,-37.725922794680244,-47.4360404958708,-61.69529075719732,-73.02339479144723,-54.77974004612734,-76.87619841817202,-71.76864619496426,,-93.41421484069484,,,-91.6987702815823,-65.14826622288497,-71.10020118641698,-69.96447960277094,-87.5164651836459,-88.76133116653509,-78.12672908116575,-90.04249082723358,-84.25244164326575,-82.28751515561166,-85.4678394864327,,,,,,,,,-94.76928567085925,,,,,,,,,-94.73874003671241,,,,,-92.99502955530285,,-94.78828618442596,,,,-93.62254861111649,,,,,,,,,,-93.56139390814344,,,,,,,,,,,,,,,,,,,,,,,,,,,,-93.90571167750458,,,,,-89.61665762328069,,,,,,,,,-92.91695381524818,,,,,,,,,,,,,,,,
2021.05.19 17:37:46,30.779999,-11.759999,-23.22,-0.38067806,1.115698,11.59033,-0.095294975,0.059253927,-0.16187929,-0.095914021,0.032832652,-1.87402451,1004.0884,123.04234527687296,47.957654723127035,-62.70349048313964,-57.68029768730486,-80.38957534878445,-71.71321261995783,-75.21559939265227,-46.56644243475069,-41.03788628141097,-56.00809735229809,-76.4177958304299,-50.94566436198552,-88.80861475613682,-73.10643094951324,-93.44231926175974,,,,-93.83239580337303,-55.96611998138471,,,-70.84678266915384,-79.16700413344554,-70.1904324919366,-37.725922794680244,-47.4360404958708,-61.69529075719732,-73.02339479144723,-54.77974004612734,-76.87619841817202,-71.76864619496426,,-93.41421484069484,,,-91.6987702815823,-65.14826622288497,-71.10020118641698,-69.96447960277094,-87.5164651836459,-88.76133116653509,-78.12672908116575,-90.04249082723358,-84.25244164326575,-82.28751515561166,-85.4678394864327,,,,,,,,,-94.76928567085925,,,,,,,,,-94.73874003671241,,,,,-92.99502955530285,,-94.78828618442596,,,,-93.62254861111649,,,,,,,,,,-93.56139390814344,,,,,,,,,,,,,,,,,,,,,,,,,,,,-93.90571167750458,,,,,-89.61665762328069,,,,,,,,,-92.91695381524818,,,,,,,,,,,,,,,,
2021.05.19 17:37:46,31.38,-11.82,-23.4,-0.5291186,1.1348516,11.386824,-0.122783914,0.15271631,-0.1563815,-0.099229179,0.046434216,-1.869027495,1004.09033,123.03006765221748,47.96993234778251,-62.70349048313964,-57.68029768730486,-80.38957534878445,-71.71321261995783,-75.21559939265227,-46.56644243475069,-41.03788628141097,-56.00809735229809,-76.4177958304299,-50.94566436198552,-88.80861475613682,-73.10643094951324,-93.44231926175974,,,,-93.83239580337303,-55.96611998138471,,,-70.84678266915384,-79.16700413344554,-70.1904324919366,-37.725922794680244,-47.4360404958708,-61.69529075719732,-73.02339479144723,-54.77974004612734,-76.87619841817202,-71.76864619496426,,-93.41421484069484,,,-91.6987702815823,-65.14826622288497,-71.10020118641698,-69.96447960277094,-87.5164651836459,-88.76133116653509,-78.12672908116575,-90.04249082723358,-84.25244164326575,-82.28751515561166,-85.4678394864327,,,,,,,,,-94.76928567085925,,,,,,,,,-94.73874003671241,,,,,-92.99502955530285,,-94.78828618442596,,,,-93.62254861111649,,,,,,,,,,-93.56139390814344,,,,,,,,,,,,,,,,,,,,,,,,,,,,-93.90571167750458,,,,,-89.61665762328069,,,,,,,,,-92.91695381524818,,,,,,,,,,,,,,,,
2021.05.19 17:37:46,30.96,-11.099999,-23.88,-0.6895301,0.7326257,10.596737,-0.034208454,0.16371189,-0.12217305,-0.068881869,0.064978436,-1.877562284,1004.09033,123.01779002756201,47.982209972437985,-62.70349048313964,-57.68029768730486,-80.38957534878445,-71.71321261995783,-75.21559939265227,-46.56644243475069,-41.03788628141097,-56.00809735229809,-76.4177958304299,-50.94566436198552,-88.80861475613682,-73.10643094951324,-93.44231926175974,,,,-93.83239580337303,-55.96611998138471,,,-70.84678266915384,-79.16700413344554,-70.1904324919366,-37.725922794680244,-47.4360404958708,-61.69529075719732,-73.02339479144723,-54.77974004612734,-76.87619841817202,-71.76864619496426,,-93.41421484069484,,,-91.6987702815823,-65.14826622288497,-71.10020118641698,-69.96447960277094,-87.5164651836459,-88.76133116653509,-78.12672908116575,-90.04249082723358,-84.25244164326575,-82.28751515561166,-85.4678394864327,,,,,,,,,-94.76928567085925,,,,,,,,,-94.73874003671241,,,,,-92.99502955530285,,-94.78828618442596,,,,-93.62254861111649,,,,,,,,,,-93.56139390814344,,,,,,,,,,,,,,,,,,,,,,,,,,,,-93.90571167750458,,,,,-89.61665762328069,,,,,,,,,-92.91695381524818,,,,,,,,,,,,,,,,
2021.05.19 17:37:46,31.199999,-10.62,-23.88,-0.35194764,0.60573304,9.55047,0.05131268,0.05131268,-0.069027774,-0.063296728,0.036834672,-1.860033274,1004.09033,123.00551240290653,47.99448759709346,-62.70349048313964,-57.68029768730486,-80.38957534878445,-71.71321261995783,-75.21559939265227,-46.56644243475069,-41.03788628141097,-56.00809735229809,-76.4177958304299,-50.94566436198552,-88.80861475613682,-73.10643094951324,-93.44231926175974,,,,-93.83239580337303,-55.96611998138471,,,-70.84678266915384,-79.16700413344554,-70.1904324919366,-37.725922794680244,-47.4360404958708,-61.69529075719732,-73.02339479144723,-54.77974004612734,-76.87619841817202,-71.76864619496426,,-93.41421484069484,,,-91.6987702815823,-65.14826622288497,-71.10020118641698,-69.96447960277094,-87.5164651836459,-88.76133116653509,-78.12672908116575,-90.04249082723358,-84.25244164326575,-82.28751515561166,-85.4678394864327,,,,,,,,,-94.76928567085925,,,,,,,,,-94.73874003671241,,,,,-92.99502955530285,,-94.78828618442596,,,,-93.62254861111649,,,,,,,,,,-93.56139390814344,,,,,,,,,,,,,,,,,,,,,,,,,,,,-93.90571167750458,,,,,-89.61665762328069,,,,,,,,,-92.91695381524818,,,,,,,,,,,,,,,,
2021.05.19 17:37:46,31.08,-9.96,-24.119999,-0.19871874,0.18435353,9.095572,0.059253927,0.061086524,-0.08124508,-0.020260882,0.021844378,-1.870998144,1004.09033,122.99323477825106,48.006765221748935,-62.70349048313964,-57.68029768730486,-80.38957534878445,-71.71321261995783,-75.21559939265227,-46.56644243475069,-41.03788628141097,-56.00809735229809,-76.4177958304299,-50.94566436198552,-88.80861475613682,-73.10643094951324,-93.44231926175974,,,,-93.83239580337303,-55.96611998138471,,,-70.84678266915384,-79.16700413344554,-70.1904324919366,-37.725922794680244,-47.4360404958708,-61.69529075719732,-73.02339479144723,-54.77974004612734,-76.87619841817202,-71.76864619496426,,-93.41421484069484,,,-91.6987702815823,-65.14826622288497,-71.10020118641698,-69.96447960277094,-87.5164651836459,-88.76133116653509,-78.12672908116575,-90.04249082723358,-84.25244164326575,-82.28751515561166,-85.4678394864327,,,,,,,,,-94.76928567085925,,,,,,,,,-94.73874003671241,,,,,-92.99502955530285,,-94.78828618442596,,,,-93.62254861111649,,,,,,,,,,-93.56139390814344,,,,,,,,,,,,,,,,,,,,,,,,,,,,-93.90571167750458,,,,,-89.61665762328069,,,,,,,,,-92.91695381524818,,,,,,,,,,,,,,,,
2021.05.19 17:37:46,30.66,-9.54,-24.119999,-0.6775591,0.40701428,9.878476,-0.06963864,0.053145275,-0.10873401,-0.041082427,0.068482175,-1.855142355,1004.08325,122.9809571535956,48.01904284640441,-62.70349048313964,-57.68029768730486,-80.38957534878445,-71.71321261995783,-75.21559939265227,-46.56644243475069,-41.03788628141097,-56.00809735229809,-76.4177958304299,-50.94566436198552,-88.80861475613682,-73.10643094951324,-93.44231926175974,,,,-93.83239580337303,-55.96611998138471,,,-70.84678266915384,-79.16700413344554,-70.1904324919366,-37.725922794680244,-47.4360404958708,-61.69529075719732,-73.02339479144723,-54.77974004612734,-76.87619841817202,-71.76864619496426,,-93.41421484069484,,,-91.6987702815823,-65.14826622288497,-71.10020118641698,-69.96447960277094,-87.5164651836459,-88.76133116653509,-78.12672908116575,-90.04249082723358,-84.25244164326575,-82.28751515561166,-85.4678394864327,,,,,,,,,-94.76928567085925,,,,,,,,,-94.73874003671241,,,,,-92.99502955530285,,-94.78828618442596,,,,-93.62254861111649,,,,,,,,,,-93.56139390814344,,,,,,,,,,,,,,,,,,,,,,,,,,,,-93.90571167750458,,,,,-89.61665762328069,,,,,,,,,-92.91695381524818,,,,,,,,,,,,,,,,
2021.05.19 17:37:46,30.96,-10.08,-23.34,-1.0175357,0.19393034,8.559271,0.1459968,0.049480084,-0.15088372,-0.022495121,0.118325785,-1.897186518,1004.08325,122.96867952894011,48.031320471059885,-62.70349048313964,-57.68029768730486,-80.38957534878445,-71.71321261995783,-75.21559939265227,-46.56644243475069,-41.03788628141097,-56.00809735229809,-76.4177958304299,-50.94566436198552,-88.80861475613682,-73.10643094951324,-93.44231926175974,,,,-93.83239580337303,-55.96611998138471,,,-70.84678266915384,-79.16700413344554,-70.1904324919366,-37.725922794680244,-47.4360404958708,-61.69529075719732,-73.02339479144723,-54.77974004612734,-76.87619841817202,-71.76864619496426,,-93.41421484069484,,,-91.6987702815823,-65.14826622288497,-71.10020118641698,-69.96447960277094,-87.5164651836459,-88.76133116653509,-78.12672908116575,-90.04249082723358,-84.25244164326575,-82.28751515561166,-85.4678394864327,,,,,,,,,-94.76928567085925,,,,,,,,,-94.73874003671241,,,,,-92.99502955530285,,-94.78828618442596,,,,-93.62254861111649,,,,,,,,,,-93.56139390814344,,,,,,,,,,,,,,,,,,,,,,,,,,,,-93.90571167750458,,,,,-89.61665762328069,,,,,,,,,-92.91695381524818,,,,,,,,,,,,,,,,
2021.05.19 17:37:46,31.14,-10.139999,-23.22,-1.0223241,0.17477672,9.078813,0.01282817,0.07391469,-0.13744467,-0.019127818,0.112133123,-1.898296833,1004.08325,122.95640190428465,48.04359809571536,-62.70349048313964,-57.68029768730486,-80.38957534878445,-71.71321261995783,-75.21559939265227,-46.56644243475069,-41.03788628141097,-56.00809735229809,-76.4177958304299,-50.94566436198552,-88.80861475613682,-73.10643094951324,-93.44231926175974,,,,-93.83239580337303,-55.96611998138471,,,-70.84678266915384,-79.16700413344554,-70.1904324919366,-37.725922794680244,-47.4360404958708,-61.69529075719732,-73.02339479144723,-54.77974004612734,-76.87619841817202,-71.76864619496426,,-93.41421484069484,,,-91.6987702815823,-65.14826622288497,-71.10020118641698,-69.96447960277094,-87.5164651836459,-88.76133116653509,-78.12672908116575,-90.04249082723358,-84.25244164326575,-82.28751515561166,-85.4678394864327,,,,,,,,,-94.76928567085925,,,,,,,,,-94.73874003671241,,,,,-92.99502955530285,,-94.78828618442596,,,,-93.62254861111649,,,,,,,,,,-93.56139390814344,,,,,,,,,,,,,,,,,,,,,,,,,,,,-93.90571167750458,,,,,-89.61665762328069,,,,,,,,,-92.91695381524818,,,,,,,,,,,,,,,,
2021.05.19 17:37:46,31.74,-10.32,-22.98,-0.6823475,0.4357447,9.196129,-0.04153884,0.032986723,-0.07819075,-0.047218468,0.074063703,-1.866235375,1004.08325,122.94412427962916,48.055875720370835,-62.70349048313964,-57.68029768730486,-80.38957534878445,-71.71321261995783,-75.21559939265227,-46.56644243475069,-41.03788628141097,-56.00809735229809,-76.4177958304299,-50.94566436198552,-88.80861475613682,-73.10643094951324,-93.44231926175974,,,,-93.83239580337303,-55.96611998138471,,,-70.84678266915384,-79.16700413344554,-70.1904324919366,-37.725922794680244,-47.4360404958708,-61.69529075719732,-73.02339479144723,-54.77974004612734,-76.87619841817202,-71.76864619496426,,-93.41421484069484,,,-91.6987702815823,-65.14826622288497,-71.10020118641698,-69.96447960277094,-87.5164651836459,-88.76133116653509,-78.12672908116575,-90.04249082723358,-84.25244164326575,-82.28751515561166,-85.4678394864327,,,,,,,,,-94.76928567085925,,,,,,,,,-94.73874003671241,,,,,-92.99502955530285,,-94.78828618442596,,,,-93.62254861111649,,,,,,,,,,-93.56139390814344,,,,,,,,,,,,,,,,,,,,,,,,,,,,-93.90571167750458,,,,,-89.61665762328069,,,,,,,,,-92.91695381524818,,,,,,,,,,,,,,,,
2021.05.19 17:37:46,32.1,-10.139999,-22.8,-1.1324574,0.2633622,8.451532,-0.053145275,-0.017104227,-0.10140363,-0.030875625,0.133200914,-1.883455157,1004.08984,122.9318466549737,48.06815334502631,-62.70349048313964,-57.68029768730486,-80.38957534878445,-71.71321261995783,-75.21559939265227,-46.56644243475069,-41.03788628141097,-56.00809735229809,-76.4177958304299,-50.94566436198552,-88.80861475613682,-73.10643094951324,-93.44231926175974,,,,-93.83239580337303,-55.96611998138471,,,-70.84678266915384,-79.16700413344554,-70.1904324919366,-37.725922794680244,-47.4360404958708,-61.69529075719732,-73.02339479144723,-54.77974004612734,-76.87619841817202,-71.76864619496426,,-93.41421484069484,,,-91.6987702815823,-65.14826622288497,-71.10020118641698,-69.96447960277094,-87.5164651836459,-88.76133116653509,-78.12672908116575,-90.04249082723358,-84.25244164326575,-82.28751515561166,-85.4678394864327,,,,,,,,,-94.76928567085925,,,,,,,,,-94.73874003671241,,,,,-92.99502955530285,,-94.78828618442596,,,,-93.62254861111649,,,,,,,,,,-93.56139390814344,,,,,,,,,,,,,,,,,,,,,,,,,,,,-93.90571167750458,,,,,-89.61665762328069,,,,,,,,,-92.91695381524818,,,,,,,,,,,,,,,,
2021.05.19 17:37:46,32.64,-9.96,-23.1,-1.163582,0.7541735,8.492233,-0.1020145,0.111177474,-0.005497787,-0.087759383,0.136169285,-1.823074698,1004.08984,122.91956903031821,48.080430969681785,-62.70349048313964,-57.68029768730486,-80.38957534878445,-71.71321261995783,-75.21559939265227,-46.56644243475069,-41.03788628141097,-56.00809735229809,-76.4177958304299,-50.94566436198552,-88.80861475613682,-73.10643094951324,-93.44231926175974,,,,-93.83239580337303,-55.96611998138471,,,-70.84678266915384,-79.16700413344554,-70.1904324919366,-37.725922794680244,-47.4360404958708,-61.69529075719732,-73.02339479144723,-54.77974004612734,-76.87619841817202,-71.76864619496426,,-93.41421484069484,,,-91.6987702815823,-65.14826622288497,-71.10020118641698,-69.96447960277094,-87.5164651836459,-88.76133116653509,-78.12672908116575,-90.04249082723358,-84.25244164326575,-82.28751515561166,-85.4678394864327,,,,,,,,,-94.76928567085925,,,,,,,,,-94.73874003671241,,,,,-92.99502955530285,,-94.78828618442596,,,,-93.62254861111649,,,,,,,,,,-93.56139390814344,,,,,,,,,,,,,,,,,,,,,,,,,,,,-93.90571167750458,,,,,-89.61665762328069,,,,,,,,,-92.91695381524818,,,,,,,,,,,,,,,,
2021.05.19 17:37:46,33.0,-10.08,-22.98,-0.7565677,1.13964,8.078036,-0.07269296,-0.037873644,0.06536258,-0.139551118,0.093384966,-1.775342703,1004.08984,122.90729140566275,48.09270859433726,-62.70349048313964,-57.68029768730486,-80.38957534878445,-71.71321261995783,-75.21559939265227,-46.56644243475069,-41.03788628141097,-56.00809735229809,-76.4177958304299,-50.94566436198552,-88.80861475613682,-73.10643094951324,-93.44231926175974,,,,-93.83239580337303,-55.96611998138471,,,-70.84678266915384,-79.16700413344554,-70.1904324919366,-37.725922794680244,-47.4360404958708,-61.69529075719732,-73.02339479144723,-54.77974004612734,-76.87619841817202,-71.76864619496426,,-93.41421484069484,,,-91.6987702815823,-65.14826622288497,-71.10020118641698,-69.96447960277094,-87.5164651836459,-88.76133116653509,-78.12672908116575,-90.04249082723358,-84.25244164326575,-82.28751515561166,-85.4678394864327,,,,,,,,,-94.76928567085925,,,,,,,,,-94.73874003671241,,,,,-92.99502955530285,,-94.78828618442596,,,,-93.62254861111649,,,,,,,,,,-93.56139390814344,,,,,,,,,,,,,,,,,,,,,,,,,,,,-93.90571167750458,,,,,-89.61665762328069,,,,,,,,,-92.91695381524818,,,,,,,,,,,,,,,,
2021.05.19 17:37:46,33.059998,-10.0199995,-23.16,-0.94092125,1.055843,8.983045,-0.20280726,-0.08368854,0.017715093,-0.116369657,0.104363576,-1.792822003,1004.08984,122.89501378100726,48.104986218992735,-62.70349048313964,-57.68029768730486,-80.38957534878445,-71.71321261995783,-75.21559939265227,-46.56644243475069,-41.03788628141097,-56.00809735229809,-76.4177958304299,-50.94566436198552,-88.80861475613682,-73.10643094951324,-93.44231926175974,,,,-93.83239580337303,-55.96611998138471,,,-70.84678266915384,-79.16700413344554,-70.1904324919366,-37.725922794680244,-47.4360404958708,-61.69529075719732,-73.02339479144723,-54.77974004612734,-76.87619841817202,-71.76864619496426,,-93.41421484069484,,,-91.6987702815823,-65.14826622288497,-71.10020118641698,-69.96447960277094,-87.5164651836459,-88.76133116653509,-78.12672908116575,-90.04249082723358,-84.25244164326575,-82.28751515561166,-85.4678394864327,,,,,,,,,-94.76928567085925,,,,,,,,,-94.73874003671241,,,,,-92.99502955530285,,-94.78828618442596,,,,-93.62254861111649,,,,,,,,,,-93.56139390814344,,,,,,,,,,,,,,,,,,,,,,,,,,,,-93.90571167750458,,,,,-89.61665762328069,,,,,,,,,-92.91695381524818,,,,,,,,,,,,,,,,
2021.05.19 17:37:46,33.3,-10.26,-23.1,-0.7326257,1.2425907,9.114726,-0.21685717,-0.12095132,0.014049901,-0.135062248,0.080205821,-1.781605005,1004.09155,122.8827361563518,48.11726384364821,-62.70349048313964,-57.68029768730486,-80.38957534878445,-71.71321261995783,-75.21559939265227,-46.56644243475069,-41.03788628141097,-56.00809735229809,-76.4177958304299,-50.94566436198552,-88.80861475613682,-73.10643094951324,-93.44231926175974,,,,-93.83239580337303,-55.96611998138471,,,-70.84678266915384,-79.16700413344554,-70.1904324919366,-37.725922794680244,-47.4360404958708,-61.69529075719732,-73.02339479144723,-54.77974004612734,-76.87619841817202,-71.76864619496426,,-93.41421484069484,,,-91.6987702815823,-65.14826622288497,-71.10020118641698,-69.96447960277094,-87.5164651836459,-88.76133116653509,-78.12672908116575,-90.04249082723358,-84.25244164326575,-82.28751515561166,-85.4678394864327,,,,,,,,,-94.76928567085925,,,,,,,,,-94.73874003671241,,,,,-92.99502955530285,,-94.78828618442596,,,,-93.62254861111649,,,,,,,,,,-93.56139390814344,,,,,,,,,,,,,,,,,,,,,,,,,,,,-93.90571167750458,,,,,-89.61665762328069,,,,,,,,,-92.91695381524818,,,,,,,,,,,,,,,,
2021.05.19 17:37:46,33.18,-9.84,-23.88,-1.0007763,1.2258313,9.701305,-0.2883284,-0.09896017,-0.04337143,-0.125034645,0.102795318,-1.776528716,1004.09155,122.87045853169631,48.129541468303685,-62.70349048313964,-57.68029768730486,-80.38957534878445,-71.71321261995783,-75.21559939265227,-46.56644243475069,-41.03788628141097,-56.00809735229809,-76.4177958304299,-50.94566436198552,-88.80861475613682,-73.10643094951324,-93.44231926175974,,,,-93.83239580337303,-55.96611998138471,,,-70.84678266915384,-79.16700413344554,-70.1904324919366,-37.725922794680244,-47.4360404958708,-61.69529075719732,-73.02339479144723,-54.77974004612734,-76.87619841817202,-71.76864619496426,,-93.41421484069484,,,-91.6987702815823,-65.14826622288497,-71.10020118641698,-69.96447960277094,-87.5164651836459,-88.76133116653509,-78.12672908116575,-90.04249082723358,-84.25244164326575,-82.28751515561166,-85.4678394864327,,,,,,,,,-94.76928567085925,,,,,,,,,-94.73874003671241,,,,,-92.99502955530285,,-94.78828618442596,,,,-93.62254861111649,,,,,,,,,,-93.56139390814344,,,,,,,,,,,,,,,,,,,,,,,,,,,,-93.90571167750458,,,,,-89.61665762328069,,,,,,,,,-92.91695381524818,,,,,,,,,,,,,,,,
2021.05.19 17:37:46,33.12,-9.24,-24.3,-0.9792285,1.4580688,9.301474,-0.17592919,-0.087964594,-0.01038471,-0.15465042,0.104890339,-1.729776025,1004.09155,122.85818090704085,48.14181909295916,-62.70349048313964,-57.68029768730486,-80.38957534878445,-71.71321261995783,-75.21559939265227,-46.56644243475069,-41.03788628141097,-56.00809735229809,-76.4177958304299,-50.94566436198552,-88.80861475613682,-73.10643094951324,-93.44231926175974,,,,-93.83239580337303,-55.96611998138471,,,-70.84678266915384,-79.16700413344554,-70.1904324919366,-37.725922794680244,-47.4360404958708,-61.69529075719732,-73.02339479144723,-54.77974004612734,-76.87619841817202,-71.76864619496426,,-93.41421484069484,,,-91.6987702815823,-65.14826622288497,-71.10020118641698,-69.96447960277094,-87.5164651836459,-88.76133116653509,-78.12672908116575,-90.04249082723358,-84.25244164326575,-82.28751515561166,-85.4678394864327,,,,,,,,,-94.76928567085925,,,,,,,,,-94.73874003671241,,,,,-92.99502955530285,,-94.78828618442596,,,,-93.62254861111649,,,,,,,,,,-93.56139390814344,,,,,,,,,,,,,,,,,,,,,,,,,,,,-93.90571167750458,,,,,-89.61665762328069,,,,,,,,,-92.91695381524818,,,,,,,,,,,,,,,,
2021.05.19 17:37:46,32.88,-9.179999,-24.42,-0.6751649,1.6256629,9.272743,-0.13500121,-0.070249505,0.02076942,-0.173103422,0.072683506,-1.712855697,1004.09155,122.84590328238536,48.154096717614635,-62.70349048313964,-57.68029768730486,-80.38957534878445,-71.71321261995783,-75.21559939265227,-46.56644243475069,-41.03788628141097,-56.00809735229809,-76.4177958304299,-50.94566436198552,-88.80861475613682,-73.10643094951324,-93.44231926175974,,,,-93.83239580337303,-55.96611998138471,,,-70.84678266915384,-79.16700413344554,-70.1904324919366,-37.725922794680244,-47.4360404958708,-61.69529075719732,-73.02339479144723,-54.77974004612734,-76.87619841817202,-71.76864619496426,,-93.41421484069484,,,-91.6987702815823,-65.14826622288497,-71.10020118641698,-69.96447960277094,-87.5164651836459,-88.76133116653509,-78.12672908116575,-90.04249082723358,-84.25244164326575,-82.28751515561166,-85.4678394864327,,,,,,,,,-94.76928567085925,,,,,,,,,-94.73874003671241,,,,,-92.99502955530285,,-94.78828618442596,,,,-93.62254861111649,,,,,,,,,,-93.56139390814344,,,,,,,,,,,,,,,,,,,,,,,,,,,,-93.90571167750458,,,,,-89.61665762328069,,,,,,,,,-92.91695381524818,,,,,,,,,,,,,,,,
2021.05.19 17:37:46,33.059998,-9.179999,-24.96,-0.6895301,1.3024458,10.383653,-0.10567969,-0.1740966,-0.032986723,-0.124509268,0.066307999,-1.752100706,1004.0984,122.8336256577299,48.16637434227011,-62.70349048313964,-57.68029768730486,-80.38957534878445,-71.71321261995783,-75.21559939265227,-46.56644243475069,-41.03788628141097,-56.00809735229809,-76.4177958304299,-50.94566436198552,-88.80861475613682,-73.10643094951324,-93.44231926175974,,,,-93.83239580337303,-55.96611998138471,,,-70.84678266915384,-79.16700413344554,-70.1904324919366,-37.725922794680244,-47.4360404958708,-61.69529075719732,-73.02339479144723,-54.77974004612734,-76.87619841817202,-71.76864619496426,,-93.41421484069484,,,-91.6987702815823,-65.14826622288497,-71.10020118641698,-69.96447960277094,-87.5164651836459,-88.76133116653509,-78.12672908116575,-90.04249082723358,-84.25244164326575,-82.28751515561166,-85.4678394864327,,,,,,,,,-94.76928567085925,,,,,,,,,-94.73874003671241,,,,,-92.99502955530285,,-94.78828618442596,,,,-93.62254861111649,,,,,,,,,,-93.56139390814344,,,,,,,,,,,,,,,,,,,,,,,,,,,,-93.90571167750458,,,,,-89.61665762328069,,,,,,,,,-92.91695381524818,,,,,,,,,,,,,,,,
2021.05.19 17:37:47,33.3,-9.66,-24.84,-1.043872,1.0151415,10.852917,-0.03359759,-0.115453534,-0.08857546,-0.092838943,0.095888577,-1.795437574,1004.0984,122.82134803307441,48.178651966925585,-61.118955776044274,-64.62570355103558,-80.01018014645724,-81.53048150115032,-76.08361262017489,-39.14115856088227,-36.22618648727642,-50.521145352622774,-74.75333839985285,-58.04723513156206,-85.34384610840075,-78.03352111857967,,,,,,-67.03983231400638,,-90.32818749749066,-71.439617646334,-72.87296590359132,-85.11063906668709,-44.74032637919828,-45.04779341281453,-51.48240131389399,-79.43161897159297,-53.57475103972636,-84.77322450488218,-76.95920332670035,,-94.12801631906926,,,,-70.24349468061266,-73.56225393008715,-69.5808777494041,-78.84816446484727,-88.06267464122968,-76.26458705234526,-84.80747478389615,-82.62928266728923,-85.83002997187005,-87.55663282975158,,,,,,,,,,,,,,,,,,,-92.38317294329951,,,-90.48190941793837,,,,,,,,,,,-94.06332101361298,,,,,,,,,,,,,,,,,,,-92.34018177796177,,,,,-90.10579226167198,,,,,-94.32522687577378,,,,,,,-92.6722860616466,,,,,,,,,,,,,,,,,,,-94.8939189000312,,-92.38698853174425,,,-92.69466778026434,,,,-93.88285470086407
