Time,Mag_x,Mag_y,Mag_z,Acc_x,Acc_y,Acc_z,Gyro_x,Gyro_y,Gyro_z,Orn_x,Orn_y,Orn_z,Pressure,True_X,True_Y,00:1a:be:a0:de:33,00:1a:be:a0:de:69,00:1a:be:a0:de:70,00:1a:be:a0:de:72,00:1a:be:a0:de:73,00:1a:be:a0:de:78,00:1a:be:a0:de:79,00:1a:be:a0:de:85,00:1a:be:a0:de:86,00:1a:be:a0:df:13,00:1a:be:a0:df:14,00:1a:be:a0:df:25,00:1a:be:a0:df:26,00:1a:be:a0:df:28,00:1a:be:a0:df:29,00:1a:be:a0:df:35,00:1a:be:a0:df:41,00:1a:be:a0:df:42,00:1a:be:a0:df:69,00:1a:be:a0:df:70,00:1a:be:a0:de:39,00:1a:be:a0:de:40,00:1a:be:a0:de:52,00:1a:be:a0:de:53,00:1a:be:a0:de:89,00:1a:be:a0:de:90,00:1a:be:a0:de:91,00:1a:be:a0:de:92,00:1a:be:a0:de:94,00:1a:be:a0:de:95,00:1a:be:a0:de:96,00:1a:be:a0:df:08,00:1a:be:a0:df:11,00:1a:be:a0:df:12,00:1a:be:a0:df:20,00:1a:be:a0:df:45,00:1a:be:a0:df:46,00:1a:be:a0:df:47,00:1a:be:a0:df:48,00:1a:be:a0:df:50,00:1a:be:a0:df:51,00:1a:be:a0:df:52,00:1a:be:a0:df:56,00:1a:be:a0:df:67,00:1a:be:a0:df:68,00:1a:be:a0:df:73,00:1a:be:a0:de:35,00:1a:be:a0:de:80,00:1a:be:a0:de:93,00:1a:be:a0:df:49,00:1a:be:a0:df:75,00:1a:be:a0:df:01,00:1a:be:a0:df:03,00:1a:be:a0:df:22,00:1a:be:a0:df:34,00:1a:be:a0:df:58,00:1a:be:a0:de:66,00:1a:be:a0:df:36,00:1a:be:a0:de:64,00:1a:be:a0:de:65,00:1a:be:a0:de:82,00:1a:be:a0:df:02,00:1a:be:a0:df:24,00:1a:be:a0:df:38,00:1a:be:a0:df:57,00:1a:be:a0:df:21,00:1a:be:a0:df:64,00:1a:be:a0:de:43,00:1a:be:a0:de:56,00:1a:be:a0:df:37,00:1a:be:a0:de:44,00:1a:be:a0:de:57,00:1a:be:a0:de:67,00:1a:be:a0:df:23,00:1a:be:a0:de:81,00:1a:be:a0:de:32,00:1a:be:a0:de:05,00:1a:be:a0:de:68,00:1a:be:a0:de:83,00:1a:be:a0:df:09,00:1a:be:a0:df:39,00:1a:be:a0:df:65,00:1a:be:a0:de:97,00:1a:be:a0:df:53,00:1a:be:a0:df:10,00:1a:be:a0:de:88,00:1a:be:a0:de:98,00:1a:be:a0:df:54,00:1a:be:a0:de:84,00:1a:be:a0:df:40,00:1a:be:a0:df:06,00:1a:be:a0:df:44,00:1a:be:a0:df:62,00:1a:be:a0:de:74,00:1a:be:a0:de:62,00:1a:be:a0:df:30,00:1a:be:a0:de:15,00:1a:be:a0:de:76,00:1a:be:a0:df:32,00:1a:be:a0:df:18,00:1a:be:a0:df:27,00:1a:be:a0:de:71,00:1a:be:a0:de:87,00:1a:be:a0:df:04,00:1a:be:a0:df:05,00:1a:be:a0:df:43,00:1a:be:a0:df:59,00:1a:be:a0:de:27,00:1a:be:a0:de:63,00:1a:be:a0:df:19,00:1a:be:a0:df:60,00:1a:be:a0:de:77,00:1a:be:a0:de:99,00:1a:be:a0:df:33,00:1a:be:a0:df:55,00:1a:be:a0:de:17,00:1a:be:a0:de:30,00:1a:be:a0:de:26,00:1a:be:a0:de:07,00:1a:be:a0:de:11,00:1a:be:a0:de:24
2021.05.19 18:12:44,29.039999,-7.98,-27.599998,0.117319465,0.81165916,8.624178,0.002404976,0.16227208,0.08456207,-0.093829349,-0.013602714,-1.752245069,1003.0862,124.0,47.0,-75.74913889575176,-76.54621174438611,-65.10988574822659,-50.48064517016362,-54.23988306713532,-76.61661333587308,-74.53520333139588,-70.4117883383609,-72.46068717065644,-44.94459734305458,-64.93467142863676,-87.41994791747771,-68.10524620609844,-58.339249679341094,-67.59623239988353,-82.7553794381419,-70.79320650097247,-73.43546543576521,-55.56080290518978,-62.65136570587486,,,-94.79823984481531,,,-92.983475239468,,,,,,,,-93.04680836896237,,,,-94.97704678124474,,,,,,,,,,,,,,,,,,,,,,-94.4462807136458,,,-91.93560906363845,,,-93.2277189342684,,,,,,-93.83170023705006,,,,,,-92.956469662212,,,,,,,-93.24388507792351,,,,,-93.77668551119127,,,,,,,,,,,,,,,,,,,,,,,,,,,,,,,
2021.05.19 18:12:44,29.699999,-7.9199996,-27.06,0.3519584,0.749408,9.907509,-0.07395318,-0.024041824,0.10899669,-0.075449236,-0.035509478,-1.762226462,1003.17773,123.98522895125554,47.014771048744464,-75.74913889575176,-76.54621174438611,-65.10988574822659,-50.48064517016362,-54.23988306713532,-76.61661333587308,-74.53520333139588,-70.4117883383609,-72.46068717065644,-44.94459734305458,-64.93467142863676,-87.41994791747771,-68.10524620609844,-58.339249679341094,-67.59623239988353,-82.7553794381419,-70.79320650097247,-73.43546543576521,-55.56080290518978,-62.65136570587486,,,-94.79823984481531,,,-92.983475239468,,,,,,,,-93.04680836896237,,,,-94.97704678124474,,,,,,,,,,,,,,,,,,,,,,-94.4462807136458,,,-91.93560906363845,,,-93.2277189342684,,,,,,-93.83170023705006,,,,,,-92.956469662212,,,,,,,-93.24388507792351,,,,,-93.77668551119127,,,,,,,,,,,,,,,,,,,,,,,,,,,,,,,
2021.05.19 18:12:44,30.42,-7.8599997,-27.0,0.37111259,0.7589851,9.768641,-0.05562722,-0.026485285,0.10227717,-0.077484623,-0.037971932,-1.754468203,1003.187,123.97045790251107,47.02954209748892,-75.74913889575176,-76.54621174438611,-65.10988574822659,-50.48064517016362,-54.23988306713532,-76.61661333587308,-74.53520333139588,-70.4117883383609,-72.46068717065644,-44.94459734305458,-64.93467142863676,-87.41994791747771,-68.10524620609844,-58.339249679341094,-67.59623239988353,-82.7553794381419,-70.79320650097247,-73.43546543576521,-55.56080290518978,-62.65136570587486,,,-94.79823984481531,,,-92.983475239468,,,,,,,,-93.04680836896237,,,,-94.97704678124474,,,,,,,,,,,,,,,,,,,,,,-94.4462807136458,,,-91.93560906363845,,,-93.2277189342684,,,,,,-93.83170023705006,,,,,,-92.956469662212,,,,,,,-93.24388507792351,,,,,-93.77668551119127,,,,,,,,,,,,,,,,,,,,,,,,,,,,,,,
2021.05.19 18:12:44,31.08,-7.9199996,-26.699999,0.33759275,0.69912827,9.802161,-0.05196203,-0.020987498,0.12549004,-0.071161263,-0.034427036,-1.758631468,1003.187,123.95568685376662,47.044313146233385,-75.74913889575176,-76.54621174438611,-65.10988574822659,-50.48064517016362,-54.23988306713532,-76.61661333587308,-74.53520333139588,-70.4117883383609,-72.46068717065644,-44.94459734305458,-64.93467142863676,-87.41994791747771,-68.10524620609844,-58.339249679341094,-67.59623239988353,-82.7553794381419,-70.79320650097247,-73.43546543576521,-55.56080290518978,-62.65136570587486,,,-94.79823984481531,,,-92.983475239468,,,,,,,,-93.04680836896237,,,,-94.97704678124474,,,,,,,,,,,,,,,,,,,,,,-94.4462807136458,,,-91.93560906363845,,,-93.2277189342684,,,,,,-93.83170023705006,,,,,,-92.956469662212,,,,,,,-93.24388507792351,,,,,-93.77668551119127,,,,,,,,,,,,,,,,,,,,,,,,,,,,,,,
2021.05.19 18:12:44,31.26,-7.44,-27.119999,0.21069619,0.76137936,9.759064,0.027450452,-0.045422107,0.0876164,-0.077841878,-0.021586442,-1.737629652,1003.1738,123.94091580502216,47.05908419497784,-75.74913889575176,-76.54621174438611,-65.10988574822659,-50.48064517016362,-54.23988306713532,-76.61661333587308,-74.53520333139588,-70.4117883383609,-72.46068717065644,-44.94459734305458,-64.93467142863676,-87.41994791747771,-68.10524620609844,-58.339249679341094,-67.59623239988353,-82.7553794381419,-70.79320650097247,-73.43546543576521,-55.56080290518978,-62.65136570587486,,,-94.79823984481531,,,-92.983475239468,,,,,,,,-93.04680836896237,,,,-94.97704678124474,,,,,,,,,,,,,,,,,,,,,,-94.4462807136458,,,-91.93560906363845,,,-93.2277189342684,,,,,,-93.83170023705006,,,,,,-92.956469662212,,,,,,,-93.24388507792351,,,,,-93.77668551119127,,,,,,,,,,,,,,,,,,,,,,,,,,,,,,,
2021.05.19 18:12:44,31.08,-7.62,-27.539999,0.28013015,0.60335726,9.938635,0.025617855,-0.04481124,0.08883814,-0.060609836,-0.028178517,-1.756777167,1003.1738,123.9261447562777,47.073855243722306,-75.74913889575176,-76.54621174438611,-65.10988574822659,-50.48064517016362,-54.23988306713532,-76.61661333587308,-74.53520333139588,-70.4117883383609,-72.46068717065644,-44.94459734305458,-64.93467142863676,-87.41994791747771,-68.10524620609844,-58.339249679341094,-67.59623239988353,-82.7553794381419,-70.79320650097247,-73.43546543576521,-55.56080290518978,-62.65136570587486,,,-94.79823984481531,,,-92.983475239468,,,,,,,,-93.04680836896237,,,,-94.97704678124474,,,,,,,,,,,,,,,,,,,,,,-94.4462807136458,,,-91.93560906363845,,,-93.2277189342684,,,,,,-93.83170023705006,,,,,,-92.956469662212,,,,,,,-93.24388507792351,,,,,-93.77668551119127,,,,,,,,,,,,,,,,,,,,,,,,,,,,,,,
2021.05.19 18:12:44,31.14,-7.3799996,-27.359999,0.3040729,0.6273,9.665688,0.07265448,-0.06985672,0.104109764,-0.064776838,-0.031448629,-1.745872736,1003.1824,123.91137370753323,47.08862629246676,-75.74913889575176,-76.54621174438611,-65.10988574822659,-50.48064517016362,-54.23988306713532,-76.61661333587308,-74.53520333139588,-70.4117883383609,-72.46068717065644,-44.94459734305458,-64.93467142863676,-87.41994791747771,-68.10524620609844,-58.339249679341094,-67.59623239988353,-82.7553794381419,-70.79320650097247,-73.43546543576521,-55.56080290518978,-62.65136570587486,,,-94.79823984481531,,,-92.983475239468,,,,,,,,-93.04680836896237,,,,-94.97704678124474,,,,,,,,,,,,,,,,,,,,,,-94.4462807136458,,,-91.93560906363845,,,-93.2277189342684,,,,,,-93.83170023705006,,,,,,-92.956469662212,,,,,,,-93.24388507792351,,,,,-93.77668551119127,,,,,,,,,,,,,,,,,,,,,,,,,,,,,,,
2021.05.19 18:12:44,30.42,-7.56,-27.9,0.4764607,0.49082634,9.603436,-0.011034058,-0.02953961,0.101055436,-0.051002398,-0.049572915,-1.763749957,1003.1748,123.89660265878878,47.10339734121123,-75.74913889575176,-76.54621174438611,-65.10988574822659,-50.48064517016362,-54.23988306713532,-76.61661333587308,-74.53520333139588,-70.4117883383609,-72.46068717065644,-44.94459734305458,-64.93467142863676,-87.41994791747771,-68.10524620609844,-58.339249679341094,-67.59623239988353,-82.7553794381419,-70.79320650097247,-73.43546543576521,-55.56080290518978,-62.65136570587486,,,-94.79823984481531,,,-92.983475239468,,,,,,,,-93.04680836896237,,,,-94.97704678124474,,,,,,,,,,,,,,,,,,,,,,-94.4462807136458,,,-91.93560906363845,,,-93.2277189342684,,,,,,-93.83170023705006,,,,,,-92.956469662212,,,,,,,-93.24388507792351,,,,,-93.77668551119127,,,,,,,,,,,,,,,,,,,,,,,,,,,,,,,
2021.05.19 18:12:44,30.72,-8.04,-28.14,0.34477556,0.38308397,9.862018,0.048830733,-0.008770192,0.09494679,-0.038801178,-0.034945711,-1.787770629,1003.1748,123.88183161004432,47.118168389955684,-75.74913889575176,-76.54621174438611,-65.10988574822659,-50.48064517016362,-54.23988306713532,-76.61661333587308,-74.53520333139588,-70.4117883383609,-72.46068717065644,-44.94459734305458,-64.93467142863676,-87.41994791747771,-68.10524620609844,-58.339249679341094,-67.59623239988353,-82.7553794381419,-70.79320650097247,-73.43546543576521,-55.56080290518978,-62.65136570587486,,,-94.79823984481531,,,-92.983475239468,,,,,,,,-93.04680836896237,,,,-94.97704678124474,,,,,,,,,,,,,,,,,,,,,,-94.4462807136458,,,-91.93560906363845,,,-93.2277189342684,,,,,,-93.83170023705006,,,,,,-92.956469662212,,,,,,,-93.24388507792351,,,,,-93.77668551119127,,,,,,,,,,,,,,,,,,,,,,,,,,,,,,,
2021.05.19 18:12:44,30.599998,-8.16,-27.84,0.34956414,0.67757976,9.687236,0.027450452,0.010777496,0.08883814,-0.069786616,-0.036069375,-1.766981483,1003.1736,123.86706056129985,47.13293943870015,-75.74913889575176,-76.54621174438611,-65.10988574822659,-50.48064517016362,-54.23988306713532,-76.61661333587308,-74.53520333139588,-70.4117883383609,-72.46068717065644,-44.94459734305458,-64.93467142863676,-87.41994791747771,-68.10524620609844,-58.339249679341094,-67.59623239988353,-82.7553794381419,-70.79320650097247,-73.43546543576521,-55.56080290518978,-62.65136570587486,,,-94.79823984481531,,,-92.983475239468,,,,,,,,-93.04680836896237,,,,-94.97704678124474,,,,,,,,,,,,,,,,,,,,,,-94.4462807136458,,,-91.93560906363845,,,-93.2277189342684,,,,,,-93.83170023705006,,,,,,-92.956469662212,,,,,,,-93.24388507792351,,,,,-93.77668551119127,,,,,,,,,,,,,,,,,,,,,,,,,,,,,,,
2021.05.19 18:12:44,29.939999,-8.5199995,-28.199999,0.105348095,0.62251145,9.778218,0.026839586,0.071864024,0.07417737,-0.063573591,-0.010773335,-1.789823174,1003.1736,123.85228951255539,47.147710487444606,-75.74913889575176,-76.54621174438611,-65.10988574822659,-50.48064517016362,-54.23988306713532,-76.61661333587308,-74.53520333139588,-70.4117883383609,-72.46068717065644,-44.94459734305458,-64.93467142863676,-87.41994791747771,-68.10524620609844,-58.339249679341094,-67.59623239988353,-82.7553794381419,-70.79320650097247,-73.43546543576521,-55.56080290518978,-62.65136570587486,,,-94.79823984481531,,,-92.983475239468,,,,,,,,-93.04680836896237,,,,-94.97704678124474,,,,,,,,,,,,,,,,,,,,,,-94.4462807136458,,,-91.93560906363845,,,-93.2277189342684,,,,,,-93.83170023705006,,,,,,-92.956469662212,,,,,,,-93.24388507792351,,,,,-93.77668551119127,,,,,,,,,,,,,,,,,,,,,,,,,,,,,,,
2021.05.19 18:12:44,30.48,-9.24,-28.019999,-0.07901107,1.0343267,9.483723,0.047609005,0.001003652,0.037525453,-0.108630262,0.008331037,-1.770453453,1003.17554,123.83751846381094,47.16248153618907,-75.74913889575176,-76.54621174438611,-65.10988574822659,-50.48064517016362,-54.23988306713532,-76.61661333587308,-74.53520333139588,-70.4117883383609,-72.46068717065644,-44.94459734305458,-64.93467142863676,-87.41994791747771,-68.10524620609844,-58.339249679341094,-67.59623239988353,-82.7553794381419,-70.79320650097247,-73.43546543576521,-55.56080290518978,-62.65136570587486,,,-94.79823984481531,,,-92.983475239468,,,,,,,,-93.04680836896237,,,,-94.97704678124474,,,,,,,,,,,,,,,,,,,,,,-94.4462807136458,,,-91.93560906363845,,,-93.2277189342684,,,,,,-93.83170023705006,,,,,,-92.956469662212,,,,,,,-93.24388507792351,,,,,-93.77668551119127,,,,,,,,,,,,,,,,,,,,,,,,,,,,,,,
2021.05.19 18:12:44,30.24,-9.719999,-27.48,0.102953814,1.4533248,9.340066,0.073265344,0.012610091,0.029584203,-0.154354036,-0.011022368,-1.746786475,1003.1653,123.82274741506647,47.177252584933534,-75.74913889575176,-76.54621174438611,-65.10988574822659,-50.48064517016362,-54.23988306713532,-76.61661333587308,-74.53520333139588,-70.4117883383609,-72.46068717065644,-44.94459734305458,-64.93467142863676,-87.41994791747771,-68.10524620609844,-58.339249679341094,-67.59623239988353,-82.7553794381419,-70.79320650097247,-73.43546543576521,-55.56080290518978,-62.65136570587486,,,-94.79823984481531,,,-92.983475239468,,,,,,,,-93.04680836896237,,,,-94.97704678124474,,,,,,,,,,,,,,,,,,,,,,-94.4462807136458,,,-91.93560906363845,,,-93.2277189342684,,,,,,-93.83170023705006,,,,,,-92.956469662212,,,,,,,-93.24388507792351,,,,,-93.77668551119127,,,,,,,,,,,,,,,,,,,,,,,,,,,,,,,
2021.05.19 18:12:44,30.84,-10.139999,-27.24,-0.3328042,1.4269878,9.593859,-0.079450965,0.10118555,-0.1267973,-0.147569686,0.03467539,-1.764789462,1003.1653,123.80797636632201,47.19202363367799,-75.74913889575176,-76.54621174438611,-65.10988574822659,-50.48064517016362,-54.23988306713532,-76.61661333587308,-74.53520333139588,-70.4117883383609,-72.46068717065644,-44.94459734305458,-64.93467142863676,-87.41994791747771,-68.10524620609844,-58.339249679341094,-67.59623239988353,-82.7553794381419,-70.79320650097247,-73.43546543576521,-55.56080290518978,-62.65136570587486,,,-94.79823984481531,,,-92.983475239468,,,,,,,,-93.04680836896237,,,,-94.97704678124474,,,,,,,,,,,,,,,,,,,,,,-94.4462807136458,,,-91.93560906363845,,,-93.2277189342684,,,,,,-93.83170023705006,,,,,,-92.956469662212,,,,,,,-93.24388507792351,,,,,-93.77668551119127,,,,,,,,,,,,,,,,,,,,,,,,,,,,,,,
2021.05.19 18:12:44,31.679998,-10.62,-26.519999,-0.62251145,1.3120626,9.701602,-0.120378934,0.16349381,-0.12191038,-0.134153664,0.064077996,-1.791543007,1003.1692,123.79320531757755,47.206794682422455,-75.74913889575176,-76.54621174438611,-65.10988574822659,-50.48064517016362,-54.23988306713532,-76.61661333587308,-74.53520333139588,-70.4117883383609,-72.46068717065644,-44.94459734305458,-64.93467142863676,-87.41994791747771,-68.10524620609844,-58.339249679341094,-67.59623239988353,-82.7553794381419,-70.79320650097247,-73.43546543576521,-55.56080290518978,-62.65136570587486,,,-94.79823984481531,,,-92.983475239468,,,,,,,,-93.04680836896237,,,,-94.97704678124474,,,,,,,,,,,,,,,,,,,,,,-94.4462807136458,,,-91.93560906363845,,,-93.2277189342684,,,,,,-93.83170023705006,,,,,,-92.956469662212,,,,,,,-93.24388507792351,,,,,-93.77668551119127,,,,,,,,,,,,,,,,,,,,,,,,,,,,,,,
2021.05.19 18:12:44,31.439999,-9.9,-26.22,-0.57462597,1.3192455,9.5244255,-0.039744724,0.061479308,0.011258246,-0.137389392,0.06025878,-1.768259883,1003.1692,123.77843426883308,47.22156573116691,-75.74913889575176,-76.54621174438611,-65.10988574822659,-50.48064517016362,-54.23988306713532,-76.61661333587308,-74.53520333139588,-70.4117883383609,-72.46068717065644,-44.94459734305458,-64.93467142863676,-87.41994791747771,-68.10524620609844,-58.339249679341094,-67.59623239988353,-82.7553794381419,-70.79320650097247,-73.43546543576521,-55.56080290518978,-62.65136570587486,,,-94.79823984481531,,,-92.983475239468,,,,,,,,-93.04680836896237,,,,-94.97704678124474,,,,,,,,,,,,,,,,,,,,,,-94.4462807136458,,,-91.93560906363845,,,-93.2277189342684,,,,,,-93.83170023705006,,,,,,-92.956469662212,,,,,,,-93.24388507792351,,,,,-93.77668551119127,,,,,,,,,,,,,,,,,,,,,,,,,,,,,,,
2021.05.19 18:12:45,31.679998,-9.66,-26.4,-0.56744313,1.2737542,9.210775,-0.07150972,0.06942056,0.088227265,-0.137161225,0.061528679,-1.758579612,1003.16626,123.76366322008863,47.236336779911376,-84.16776007190977,-90.10685064396428,-82.00558845146338,-57.70618810831024,-73.84139714238191,-79.84197763513545,-85.06650659658993,-78.28930272166951,-73.99504228426099,-56.18545146401058,-76.88757590195486,-84.27971661936314,-85.27645949260244,-70.2895997392321,-69.9960620882946,-85.58634659176134,-86.01860417885516,-68.48437193481662,-58.565053507815435,-68.71932752354805,-93.05268771230023,-89.3602528296639,-90.36779513432414,-92.8605598355431,-85.37657359813399,-92.7832389182257,-88.97052304652127,,,,-93.29273938342904,,-90.87356474992504,,,-87.24451018419566,-89.10329142826622,-80.21916613386827,,-91.8294466061815,-87.16927405759299,-91.87937161062382,,-93.00689761964246,-90.65766094357325,,,,,,,,,,,,,,,,,,,,,,,,,,,,,,-94.06228706308335,,,,,,,,,,,,,,,,,,,,,,,,,,,,-89.3357275781774,,,,,,,,,,,,,,,,,,
2021.05.19 18:12:45,31.08,-9.42,-26.4,-0.12210801,1.5826156,9.646533,-0.10938336,0.037655566,0.19024175,-0.162599146,0.012657552,-1.730711818,1003.1782,123.74889217134417,47.25110782865583,-84.16776007190977,-90.10685064396428,-82.00558845146338,-57.70618810831024,-73.84139714238191,-79.84197763513545,-85.06650659658993,-78.28930272166951,-73.99504228426099,-56.18545146401058,-76.88757590195486,-84.27971661936314,-85.27645949260244,-70.2895997392321,-69.9960620882946,-85.58634659176134,-86.01860417885516,-68.48437193481662,-58.565053507815435,-68.71932752354805,-93.05268771230023,-89.3602528296639,-90.36779513432414,-92.8605598355431,-85.37657359813399,-92.7832389182257,-88.97052304652127,,,,-93.29273938342904,,-90.87356474992504,,,-87.24451018419566,-89.10329142826622,-80.21916613386827,,-91.8294466061815,-87.16927405759299,-91.87937161062382,,-93.00689761964246,-90.65766094357325,,,,,,,,,,,,,,,,,,,,,,,,,,,,,,-94.06228706308335,,,,,,,,,,,,,,,,,,,,,,,,,,,,-89.3357275781774,,,,,,,,,,,,,,,,,,
2021.05.19 18:12:45,30.539999,-9.24,-26.279999,-0.2083019,1.5059988,9.780613,-0.11243769,0.009555765,0.11632707,-0.15274398,0.021294208,-1.737252355,1003.1782,123.7341211225997,47.2658788774003,-84.16776007190977,-90.10685064396428,-82.00558845146338,-57.70618810831024,-73.84139714238191,-79.84197763513545,-85.06650659658993,-78.28930272166951,-73.99504228426099,-56.18545146401058,-76.88757590195486,-84.27971661936314,-85.27645949260244,-70.2895997392321,-69.9960620882946,-85.58634659176134,-86.01860417885516,-68.48437193481662,-58.565053507815435,-68.71932752354805,-93.05268771230023,-89.3602528296639,-90.36779513432414,-92.8605598355431,-85.37657359813399,-92.7832389182257,-88.97052304652127,,,,-93.29273938342904,,-90.87356474992504,,,-87.24451018419566,-89.10329142826622,-80.21916613386827,,-91.8294466061815,-87.16927405759299,-91.87937161062382,,-93.00689761964246,-90.65766094357325,,,,,,,,,,,,,,,,,,,,,,,,,,,,,,-94.06228706308335,,,,,,,,,,,,,,,,,,,,,,,,,,,,-89.3357275781774,,,,,,,,,,,,,,,,,,
2021.05.19 18:12:45,30.24,-9.78,-26.4,-0.26097596,1.2617828,9.775824,-0.15519826,-0.08390661,-0.015008959,-0.128316864,0.026689719,-1.778406978,1003.1714,123.71935007385524,47.280649926144754,-84.16776007190977,-90.10685064396428,-82.00558845146338,-57.70618810831024,-73.84139714238191,-79.84197763513545,-85.06650659658993,-78.28930272166951,-73.99504228426099,-56.18545146401058,-76.88757590195486,-84.27971661936314,-85.27645949260244,-70.2895997392321,-69.9960620882946,-85.58634659176134,-86.01860417885516,-68.48437193481662,-58.565053507815435,-68.71932752354805,-93.05268771230023,-89.3602528296639,-90.36779513432414,-92.8605598355431,-85.37657359813399,-92.7832389182257,-88.97052304652127,,,,-93.29273938342904,,-90.87356474992504,,,-87.24451018419566,-89.10329142826622,-80.21916613386827,,-91.8294466061815,-87.16927405759299,-91.87937161062382,,-93.00689761964246,-90.65766094357325,,,,,,,,,,,,,,,,,,,,,,,,,,,,,,-94.06228706308335,,,,,,,,,,,,,,,,,,,,,,,,,,,,-89.3357275781774,,,,,,,,,,,,,,,,,,
2021.05.19 18:12:45,29.939999,-9.66,-25.98,0.043096945,0.7805336,10.309748,-0.1490896,-0.06558066,-0.00584598,-0.075563505,-0.004180189,-1.821047187,1003.1714,123.70457902511079,47.29542097488922,-84.16776007190977,-90.10685064396428,-82.00558845146338,-57.70618810831024,-73.84139714238191,-79.84197763513545,-85.06650659658993,-78.28930272166951,-73.99504228426099,-56.18545146401058,-76.88757590195486,-84.27971661936314,-85.27645949260244,-70.2895997392321,-69.9960620882946,-85.58634659176134,-86.01860417885516,-68.48437193481662,-58.565053507815435,-68.71932752354805,-93.05268771230023,-89.3602528296639,-90.36779513432414,-92.8605598355431,-85.37657359813399,-92.7832389182257,-88.97052304652127,,,,-93.29273938342904,,-90.87356474992504,,,-87.24451018419566,-89.10329142826622,-80.21916613386827,,-91.8294466061815,-87.16927405759299,-91.87937161062382,,-93.00689761964246,-90.65766094357325,,,,,,,,,,,,,,,,,,,,,,,,,,,,,,-94.06228706308335,,,,,,,,,,,,,,,,,,,,,,,,,,,,-89.3357275781774,,,,,,,,,,,,,,,,,,
2021.05.19 18:12:45,29.58,-9.9,-26.099998,0.26337022,0.6201172,10.496501,-0.036079533,-0.09184786,-0.12191038,-0.058991354,-0.025085974,-1.841506362,1003.1692,123.68980797636632,47.310192023633675,-84.16776007190977,-90.10685064396428,-82.00558845146338,-57.70618810831024,-73.84139714238191,-79.84197763513545,-85.06650659658993,-78.28930272166951,-73.99504228426099,-56.18545146401058,-76.88757590195486,-84.27971661936314,-85.27645949260244,-70.2895997392321,-69.9960620882946,-85.58634659176134,-86.01860417885516,-68.48437193481662,-58.565053507815435,-68.71932752354805,-93.05268771230023,-89.3602528296639,-90.36779513432414,-92.8605598355431,-85.37657359813399,-92.7832389182257,-88.97052304652127,,,,-93.29273938342904,,-90.87356474992504,,,-87.24451018419566,-89.10329142826622,-80.21916613386827,,-91.8294466061815,-87.16927405759299,-91.87937161062382,,-93.00689761964246,-90.65766094357325,,,,,,,,,,,,,,,,,,,,,,,,,,,,,,-94.06228706308335,,,,,,,,,,,,,,,,,,,,,,,,,,,,-89.3357275781774,,,,,,,,,,,,,,,,,,
2021.05.19 18:12:45,29.64,-9.179999,-26.4,0.19154198,-0.062251143,11.281823,-0.18574151,0.05659239,-0.26973978,0.005516976,-0.016976297,-1.871302128,1003.1765,123.67503692762186,47.32496307237814,-84.16776007190977,-90.10685064396428,-82.00558845146338,-57.70618810831024,-73.84139714238191,-79.84197763513545,-85.06650659658993,-78.28930272166951,-73.99504228426099,-56.18545146401058,-76.88757590195486,-84.27971661936314,-85.27645949260244,-70.2895997392321,-69.9960620882946,-85.58634659176134,-86.01860417885516,-68.48437193481662,-58.565053507815435,-68.71932752354805,-93.05268771230023,-89.3602528296639,-90.36779513432414,-92.8605598355431,-85.37657359813399,-92.7832389182257,-88.97052304652127,,,,-93.29273938342904,,-90.87356474992504,,,-87.24451018419566,-89.10329142826622,-80.21916613386827,,-91.8294466061815,-87.16927405759299,-91.87937161062382,,-93.00689761964246,-90.65766094357325,,,,,,,,,,,,,,,,,,,,,,,,,,,,,,-94.06228706308335,,,,,,,,,,,,,,,,,,,,,,,,,,,,-89.3357275781774,,,,,,,,,,,,,,,,,,
2021.05.19 18:12:45,29.82,-8.28,-26.64,0.07422252,-0.43575802,10.084685,-0.001260215,0.050483737,-0.2532464,0.043181848,-0.007359791,-1.874683022,1003.1765,123.6602658788774,47.339734121122596,-84.16776007190977,-90.10685064396428,-82.00558845146338,-57.70618810831024,-73.84139714238191,-79.84197763513545,-85.06650659658993,-78.28930272166951,-73.99504228426099,-56.18545146401058,-76.88757590195486,-84.27971661936314,-85.27645949260244,-70.2895997392321,-69.9960620882946,-85.58634659176134,-86.01860417885516,-68.48437193481662,-58.565053507815435,-68.71932752354805,-93.05268771230023,-89.3602528296639,-90.36779513432414,-92.8605598355431,-85.37657359813399,-92.7832389182257,-88.97052304652127,,,,-93.29273938342904,,-90.87356474992504,,,-87.24451018419566,-89.10329142826622,-80.21916613386827,,-91.8294466061815,-87.16927405759299,-91.87937161062382,,-93.00689761964246,-90.65766094357325,,,,,,,,,,,,,,,,,,,,,,,,,,,,,,-94.06228706308335,,,,,,,,,,,,,,,,,,,,,,,,,,,,-89.3357275781774,,,,,,,,,,,,,,,,,,
2021.05.19 18:12:45,29.88,-7.98,-26.699999,-0.06943397,-0.46209505,9.126976,0.033559106,0.03215778,-0.19765767,0.050584935,0.007607408,-1.875446439,1003.1853,123.64549483013293,47.35450516986706,-84.16776007190977,-90.10685064396428,-82.00558845146338,-57.70618810831024,-73.84139714238191,-79.84197763513545,-85.06650659658993,-78.28930272166951,-73.99504228426099,-56.18545146401058,-76.88757590195486,-84.27971661936314,-85.27645949260244,-70.2895997392321,-69.9960620882946,-85.58634659176134,-86.01860417885516,-68.48437193481662,-58.565053507815435,-68.71932752354805,-93.05268771230023,-89.3602528296639,-90.36779513432414,-92.8605598355431,-85.37657359813399,-92.7832389182257,-88.97052304652127,,,,-93.29273938342904,,-90.87356474992504,,,-87.24451018419566,-89.10329142826622,-80.21916613386827,,-91.8294466061815,-87.16927405759299,-91.87937161062382,,-93.00689761964246,-90.65766094357325,,,,,,,,,,,,,,,,,,,,,,,,,,,,,,-94.06228706308335,,,,,,,,,,,,,,,,,,,,,,,,,,,,-89.3357275781774,,,,,,,,,,,,,,,,,,
2021.05.19 18:12:45,30.42,-7.14,-26.88,0.13647367,-0.40223816,9.641745,-0.02630569,-0.021598361,-0.06326731,0.041690055,-0.014153513,-1.83210814,1003.1853,123.63072378138848,47.369276218611525,-84.16776007190977,-90.10685064396428,-82.00558845146338,-57.70618810831024,-73.84139714238191,-79.84197763513545,-85.06650659658993,-78.28930272166951,-73.99504228426099,-56.18545146401058,-76.88757590195486,-84.27971661936314,-85.27645949260244,-70.2895997392321,-69.9960620882946,-85.58634659176134,-86.01860417885516,-68.48437193481662,-58.565053507815435,-68.71932752354805,-93.05268771230023,-89.3602528296639,-90.36779513432414,-92.8605598355431,-85.37657359813399,-92.7832389182257,-88.97052304652127,,,,-93.29273938342904,,-90.87356474992504,,,-87.24451018419566,-89.10329142826622,-80.21916613386827,,-91.8294466061815,-87.16927405759299,-91.87937161062382,,-93.00689761964246,-90.65766094357325,,,,,,,,,,,,,,,,,,,,,,,,,,,,,,-94.06228706308335,,,,,,,,,,,,,,,,,,,,,,,,,,,,-89.3357275781774,,,,,,,,,,,,,,,,,,
2021.05.19 18:12:45,30.24,-6.7799997,-26.699999,0.6560313,0.25858167,9.471751,-0.014088386,0.11279199,-0.030891454,-0.027228322,-0.069151446,-1.759366393,1003.1885,123.61595273264402,47.38404726735598,-84.16776007190977,-90.10685064396428,-82.00558845146338,-57.70618810831024,-73.84139714238191,-79.84197763513545,-85.06650659658993,-78.28930272166951,-73.99504228426099,-56.18545146401058,-76.88757590195486,-84.27971661936314,-85.27645949260244,-70.2895997392321,-69.9960620882946,-85.58634659176134,-86.01860417885516,-68.48437193481662,-58.565053507815435,-68.71932752354805,-93.05268771230023,-89.3602528296639,-90.36779513432414,-92.8605598355431,-85.37657359813399,-92.7832389182257,-88.97052304652127,,,,-93.29273938342904,,-90.87356474992504,,,-87.24451018419566,-89.10329142826622,-80.21916613386827,,-91.8294466061815,-87.16927405759299,-91.87937161062382,,-93.00689761964246,-90.65766094357325,,,,,,,,,,,,,,,,,,,,,,,,,,,,,,-94.06228706308335,,,,,,,,,,,,,,,,,,,,,,,,,,,,-89.3357275781774,,,,,,,,,,,,,,,,,,
2021.05.19 18:12:45,30.539999,-6.72,-26.46,0.26337022,0.016759925,9.914692,0.001794111,-0.14988007,-0.10175183,-0.001689815,-0.026557386,-1.781403542,1003.17725,123.60118168389955,47.398818316100446,-84.16776007190977,-90.10685064396428,-82.00558845146338,-57.70618810831024,-73.84139714238191,-79.84197763513545,-85.06650659658993,-78.28930272166951,-73.99504228426099,-56.18545146401058,-76.88757590195486,-84.27971661936314,-85.27645949260244,-70.2895997392321,-69.9960620882946,-85.58634659176134,-86.01860417885516,-68.48437193481662,-58.565053507815435,-68.71932752354805,-93.05268771230023,-89.3602528296639,-90.36779513432414,-92.8605598355431,-85.37657359813399,-92.7832389182257,-88.97052304652127,,,,-93.29273938342904,,-90.87356474992504,,,-87.24451018419566,-89.10329142826622,-80.21916613386827,,-91.8294466061815,-87.16927405759299,-91.87937161062382,,-93.00689761964246,-90.65766094357325,,,,,,,,,,,,,,,,,,,,,,,,,,,,,,-94.06228706308335,,,,,,,,,,,,,,,,,,,,,,,,,,,,-89.3357275781774,,,,,,,,,,,,,,,,,,
2021.05.19 18:12:45,30.3,-6.48,-26.519999,0.43096948,0.47885495,9.715967,0.07876313,-0.17797986,0.011869112,-0.049197223,-0.044327769,-1.735771179,1003.17725,123.58641063515509,47.4135893648449,-84.16776007190977,-90.10685064396428,-82.00558845146338,-57.70618810831024,-73.84139714238191,-79.84197763513545,-85.06650659658993,-78.28930272166951,-73.99504228426099,-56.18545146401058,-76.88757590195486,-84.27971661936314,-85.27645949260244,-70.2895997392321,-69.9960620882946,-85.58634659176134,-86.01860417885516,-68.48437193481662,-58.565053507815435,-68.71932752354805,-93.05268771230023,-89.3602528296639,-90.36779513432414,-92.8605598355431,-85.37657359813399,-92.7832389182257,-88.97052304652127,,,,-93.29273938342904,,-90.87356474992504,,,-87.24451018419566,-89.10329142826622,-80.21916613386827,,-91.8294466061815,-87.16927405759299,-91.87937161062382,,-93.00689761964246,-90.65766094357325,,,,,,,,,,,,,,,,,,,,,,,,,,,,,,-94.06228706308335,,,,,,,,,,,,,,,,,,,,,,,,,,,,-89.3357275781774,,,,,,,,,,,,,,,,,,
2021.05.19 18:12:45,30.179998,-6.42,-26.4,0.22985038,0.6608198,8.442213,0.11113899,0.010777496,0.00698219,-0.078087568,-0.027219594,-1.712483406,1003.17505,123.57163958641064,47.42836041358937,-84.16776007190977,-90.10685064396428,-82.00558845146338,-57.70618810831024,-73.84139714238191,-79.84197763513545,-85.06650659658993,-78.28930272166951,-73.99504228426099,-56.18545146401058,-76.88757590195486,-84.27971661936314,-85.27645949260244,-70.2895997392321,-69.9960620882946,-85.58634659176134,-86.01860417885516,-68.48437193481662,-58.565053507815435,-68.71932752354805,-93.05268771230023,-89.3602528296639,-90.36779513432414,-92.8605598355431,-85.37657359813399,-92.7832389182257,-88.97052304652127,,,,-93.29273938342904,,-90.87356474992504,,,-87.24451018419566,-89.10329142826622,-80.21916613386827,,-91.8294466061815,-87.16927405759299,-91.87937161062382,,-93.00689761964246,-90.65766094357325,,,,,,,,,,,,,,,,,,,,,,,,,,,,,,-94.06228706308335,,,,,,,,,,,,,,,,,,,,,,,,,,,,-89.3357275781774,,,,,,,,,,,,,,,,,,
2021.05.19 18:12:45,30.359999,-6.72,-26.939999,0.47167215,0.55307746,8.995291,-0.02752742,-0.08818267,-0.030891454,-0.061323892,-0.052387476,-1.731890321,1003.17505,123.55686853766618,47.443131462333824,-84.16776007190977,-90.10685064396428,-82.00558845146338,-57.70618810831024,-73.84139714238191,-79.84197763513545,-85.06650659658993,-78.28930272166951,-73.99504228426099,-56.18545146401058,-76.88757590195486,-84.27971661936314,-85.27645949260244,-70.2895997392321,-69.9960620882946,-85.58634659176134,-86.01860417885516,-68.48437193481662,-58.565053507815435,-68.71932752354805,-93.05268771230023,-89.3602528296639,-90.36779513432414,-92.8605598355431,-85.37657359813399,-92.7832389182257,-88.97052304652127,,,,-93.29273938342904,,-90.87356474992504,,,-87.24451018419566,-89.10329142826622,-80.21916613386827,,-91.8294466061815,-87.16927405759299,-91.87937161062382,,-93.00689761964246,-90.65766094357325,,,,,,,,,,,,,,,,,,,,,,,,,,,,,,-94.06228706308335,,,,,,,,,,,,,,,,,,,,,,,,,,,,-89.3357275781774,,,,,,,,,,,,,,,,,,
2021.05.19 18:12:45,29.4,-6.7799997,-26.939999,0.91700727,0.80208206,9.720756,-0.09350087,-0.26960966,-0.069986835,-0.081963569,-0.094056629,-1.720221162,1003.1758,123.54209748892171,47.45790251107829,-84.16776007190977,-90.10685064396428,-82.00558845146338,-57.70618810831024,-73.84139714238191,-79.84197763513545,-85.06650659658993,-78.28930272166951,-73.99504228426099,-56.18545146401058,-76.88757590195486,-84.27971661936314,-85.27645949260244,-70.2895997392321,-69.9960620882946,-85.58634659176134,-86.01860417885516,-68.48437193481662,-58.565053507815435,-68.71932752354805,-93.05268771230023,-89.3602528296639,-90.36779513432414,-92.8605598355431,-85.37657359813399,-92.7832389182257,-88.97052304652127,,,,-93.29273938342904,,-90.87356474992504,,,-87.24451018419566,-89.10329142826622,-80.21916613386827,,-91.8294466061815,-87.16927405759299,-91.87937161062382,,-93.00689761964246,-90.65766094357325,,,,,,,,,,,,,,,,,,,,,,,,,,,,,,-94.06228706308335,,,,,,,,,,,,,,,,,,,,,,,,,,,,-89.3357275781774,,,,,,,,,,,,,,,,,,
2021.05.19 18:12:45,29.279999,-6.72,-27.06,0.6560313,0.6560313,9.498088,-0.12954192,-0.14438228,-0.14634499,-0.06879691,-0.068960309,-1.729923487,1003.177,123.52732644017725,47.472673559822745,-84.16776007190977,-90.10685064396428,-82.00558845146338,-57.70618810831024,-73.84139714238191,-79.84197763513545,-85.06650659658993,-78.28930272166951,-73.99504228426099,-56.18545146401058,-76.88757590195486,-84.27971661936314,-85.27645949260244,-70.2895997392321,-69.9960620882946,-85.58634659176134,-86.01860417885516,-68.48437193481662,-58.565053507815435,-68.71932752354805,-93.05268771230023,-89.3602528296639,-90.36779513432414,-92.8605598355431,-85.37657359813399,-92.7832389182257,-88.97052304652127,,,,-93.29273938342904,,-90.87356474992504,,,-87.24451018419566,-89.10329142826622,-80.21916613386827,,-91.8294466061815,-87.16927405759299,-91.87937161062382,,-93.00689761964246,-90.65766094357325,,,,,,,,,,,,,,,,,,,,,,,,,,,,,,-94.06228706308335,,,,,,,,,,,,,,,,,,,,,,,,,,,,-89.3357275781774,,,,,,,,,,,,,,,,,,
2021.05.19 18:12:46,29.16,-6.24,-27.24,0.8978531,0.44054657,9.694419,-0.53943247,0.04070989,0.021642955,-0.045218822,-0.09235201,-1.731967449,1003.177,123.5125553914328,47.48744460856721,-91.52589418015454,-87.79999151250267,-86.57163041327256,-74.35839193673294,-73.55166573519375,-86.24491869156418,-92.21966052830487,-82.26956927070263,-80.43290625615309,-73.73937245964377,-81.29803548346771,-86.54789480596546,-92.18635104702813,-70.55915285779999,-67.69860165040352,-94.40429658240757,-85.27931319142222,-84.27692396185412,-72.71488705577777,-77.15618705986749,-78.49635335693037,-86.33950973150783,-79.22608235482991,-91.98616803059159,-66.81685335137084,-77.2108652467865,-77.75632733454212,-92.96926746228894,-88.94724787587813,-88.20011452661845,-92.16491777269859,,-77.29860077230077,,,-69.94515377934488,-71.81144633822025,-78.01554507775523,-91.8691268003603,-92.23316886194166,-88.12105657522488,-87.95073969732972,-77.85073755772733,-83.09084087493198,,-94.26581640432771,,,,,,,,,,,-92.31642063580043,,,,,,-94.42541362370952,,,,,,,,,,,,,,-93.12517414557843,,,,,,,,,,,,,,,,,,,,,,-93.96004290325332,,,,-94.39221857960266,,-93.19981418568264,-94.87950075387997,,,,-92.03005364944747,,-93.01886734129647,,,,,,,,,
2021.05.19 18:12:46,28.859999,-5.7599998,-26.82,0.6201172,0.48843205,10.6641,0.046387278,0.19464794,0.24705224,-0.045692459,-0.05808457,-1.721369863,1003.17944,123.49778434268833,47.502215657311666,-91.52589418015454,-87.79999151250267,-86.57163041327256,-74.35839193673294,-73.55166573519375,-86.24491869156418,-92.21966052830487,-82.26956927070263,-80.43290625615309,-73.73937245964377,-81.29803548346771,-86.54789480596546,-92.18635104702813,-70.55915285779999,-67.69860165040352,-94.40429658240757,-85.27931319142222,-84.27692396185412,-72.71488705577777,-77.15618705986749,-78.49635335693037,-86.33950973150783,-79.22608235482991,-91.98616803059159,-66.81685335137084,-77.2108652467865,-77.75632733454212,-92.96926746228894,-88.94724787587813,-88.20011452661845,-92.16491777269859,,-77.29860077230077,,,-69.94515377934488,-71.81144633822025,-78.01554507775523,-91.8691268003603,-92.23316886194166,-88.12105657522488,-87.95073969732972,-77.85073755772733,-83.09084087493198,,-94.26581640432771,,,,,,,,,,,-92.31642063580043,,,,,,-94.42541362370952,,,,,,,,,,,,,,-93.12517414557843,,,,,,,,,,,,,,,,,,,,,,-93.96004290325332,,,,-94.39221857960266,,-93.19981418568264,-94.87950075387997,,,,-92.03005364944747,,-93.01886734129647,,,,,,,,,
2021.05.19 18:12:46,29.46,-5.46,-26.58,0.5770202,0.48124924,9.648928,0.5350795,0.10607247,0.270876,-0.049745914,-0.059730355,-1.706161618,1003.17944,123.48301329394387,47.51698670605613,-91.52589418015454,-87.79999151250267,-86.57163041327256,-74.35839193673294,-73.55166573519375,-86.24491869156418,-92.21966052830487,-82.26956927070263,-80.43290625615309,-73.73937245964377,-81.29803548346771,-86.54789480596546,-92.18635104702813,-70.55915285779999,-67.69860165040352,-94.40429658240757,-85.27931319142222,-84.27692396185412,-72.71488705577777,-77.15618705986749,-78.49635335693037,-86.33950973150783,-79.22608235482991,-91.98616803059159,-66.81685335137084,-77.2108652467865,-77.75632733454212,-92.96926746228894,-88.94724787587813,-88.20011452661845,-92.16491777269859,,-77.29860077230077,,,-69.94515377934488,-71.81144633822025,-78.01554507775523,-91.8691268003603,-92.23316886194166,-88.12105657522488,-87.95073969732972,-77.85073755772733,-83.09084087493198,,-94.26581640432771,,,,,,,,,,,-92.31642063580043,,,,,,-94.42541362370952,,,,,,,,,,,,,,-93.12517414557843,,,,,,,,,,,,,,,,,,,,,,-93.96004290325332,,,,-94.39221857960266,,-93.19981418568264,-94.87950075387997,,,,-92.03005364944747,,-93.01886734129647,,,,,,,,,
2021.05.19 18:12:46,30.0,-5.7,-26.46,0.5219519,0.64166564,11.159715,0.22842512,0.30704716,0.11205101,-0.057372577,-0.046737019,-1.706336141,1003.1863,123.4682422451994,47.531757754800594,-91.52589418015454,-87.79999151250267,-86.57163041327256,-74.35839193673294,-73.55166573519375,-86.24491869156418,-92.21966052830487,-82.26956927070263,-80.43290625615309,-73.73937245964377,-81.29803548346771,-86.54789480596546,-92.18635104702813,-70.55915285779999,-67.69860165040352,-94.40429658240757,-85.27931319142222,-84.27692396185412,-72.71488705577777,-77.15618705986749,-78.49635335693037,-86.33950973150783,-79.22608235482991,-91.98616803059159,-66.81685335137084,-77.2108652467865,-77.75632733454212,-92.96926746228894,-88.94724787587813,-88.20011452661845,-92.16491777269859,,-77.29860077230077,,,-69.94515377934488,-71.81144633822025,-78.01554507775523,-91.8691268003603,-92.23316886194166,-88.12105657522488,-87.95073969732972,-77.85073755772733,-83.09084087493198,,-94.26581640432771,,,,,,,,,,,-92.31642063580043,,,,,,-94.42541362370952,,,,,,,,,,,,,,-93.12517414557843,,,,,,,,,,,,,,,,,,,,,,-93.96004290325332,,,,-94.39221857960266,,-93.19981418568264,-94.87950075387997,,,,-92.03005364944747,,-93.01886734129647,,,,,,,,,
2021.05.19 18:12:46,30.179998,-6.2999997,-26.039999,0.8284191,0.2681588,10.688043,0.065934956,0.253291,0.027751608,-0.025009366,-0.077354304,-1.746738672,1003.2007,123.45347119645494,47.54652880354505,-91.52589418015454,-87.79999151250267,-86.57163041327256,-74.35839193673294,-73.55166573519375,-86.24491869156418,-92.21966052830487,-82.26956927070263,-80.43290625615309,-73.73937245964377,-81.29803548346771,-86.54789480596546,-92.18635104702813,-70.55915285779999,-67.69860165040352,-94.40429658240757,-85.27931319142222,-84.27692396185412,-72.71488705577777,-77.15618705986749,-78.49635335693037,-86.33950973150783,-79.22608235482991,-91.98616803059159,-66.81685335137084,-77.2108652467865,-77.75632733454212,-92.96926746228894,-88.94724787587813,-88.20011452661845,-92.16491777269859,,-77.29860077230077,,,-69.94515377934488,-71.81144633822025,-78.01554507775523,-91.8691268003603,-92.23316886194166,-88.12105657522488,-87.95073969732972,-77.85073755772733,-83.09084087493198,,-94.26581640432771,,,,,,,,,,,-92.31642063580043,,,,,,-94.42541362370952,,,,,,,,,,,,,,-93.12517414557843,,,,,,,,,,,,,,,,,,,,,,-93.96004290325332,,,,-94.39221857960266,,-93.19981418568264,-94.87950075387997,,,,-92.03005364944747,,-93.01886734129647,,,,,,,,,
2021.05.19 18:12:46,30.599998,-6.96,-25.32,-0.31365,-0.5794145,10.905922,0.14046052,-0.027096149,0.00698219,0.053056628,0.028751681,-1.843134642,1003.2007,123.43870014771049,47.561299852289515,-91.52589418015454,-87.79999151250267,-86.57163041327256,-74.35839193673294,-73.55166573519375,-86.24491869156418,-92.21966052830487,-82.26956927070263,-80.43290625615309,-73.73937245964377,-81.29803548346771,-86.54789480596546,-92.18635104702813,-70.55915285779999,-67.69860165040352,-94.40429658240757,-85.27931319142222,-84.27692396185412,-72.71488705577777,-77.15618705986749,-78.49635335693037,-86.33950973150783,-79.22608235482991,-91.98616803059159,-66.81685335137084,-77.2108652467865,-77.75632733454212,-92.96926746228894,-88.94724787587813,-88.20011452661845,-92.16491777269859,,-77.29860077230077,,,-69.94515377934488,-71.81144633822025,-78.01554507775523,-91.8691268003603,-92.23316886194166,-88.12105657522488,-87.95073969732972,-77.85073755772733,-83.09084087493198,,-94.26581640432771,,,,,,,,,,,-92.31642063580043,,,,,,-94.42541362370952,,,,,,,,,,,,,,-93.12517414557843,,,,,,,,,,,,,,,,,,,,,,-93.96004290325332,,,,-94.39221857960266,,-93.19981418568264,-94.87950075387997,,,,-92.03005364944747,,-93.01886734129647,,,,,,,,,
2021.05.19 18:12:46,30.599998,-7.68,-25.08,0.06943397,0.117319465,9.002473,0.22475992,0.22885638,0.15908763,-0.013030791,-0.007712614,-1.805279374,1003.1992,123.42392909896603,47.57607090103397,-91.52589418015454,-87.79999151250267,-86.57163041327256,-74.35839193673294,-73.55166573519375,-86.24491869156418,-92.21966052830487,-82.26956927070263,-80.43290625615309,-73.73937245964377,-81.29803548346771,-86.54789480596546,-92.18635104702813,-70.55915285779999,-67.69860165040352,-94.40429658240757,-85.27931319142222,-84.27692396185412,-72.71488705577777,-77.15618705986749,-78.49635335693037,-86.33950973150783,-79.22608235482991,-91.98616803059159,-66.81685335137084,-77.2108652467865,-77.75632733454212,-92.96926746228894,-88.94724787587813,-88.20011452661845,-92.16491777269859,,-77.29860077230077,,,-69.94515377934488,-71.81144633822025,-78.01554507775523,-91.8691268003603,-92.23316886194166,-88.12105657522488,-87.95073969732972,-77.85073755772733,-83.09084087493198,,-94.26581640432771,,,,,,,,,,,-92.31642063580043,,,,,,-94.42541362370952,,,,,,,,,,,,,,-93.12517414557843,,,,,,,,,,,,,,,,,,,,,,-93.96004290325332,,,,-94.39221857960266,,-93.19981418568264,-94.87950075387997,,,,-92.03005364944747,,-93.01886734129647,,,,,,,,,
2021.05.19 18:12:46,30.3,-7.68,-24.72,-0.35435268,-0.32083282,9.3831625,0.27668348,-0.006937597,0.02897334,0.034154754,0.037746802,-1.854558825,1003.1992,123.40915805022156,47.59084194977844,-91.52589418015454,-87.79999151250267,-86.57163041327256,-74.35839193673294,-73.55166573519375,-86.24491869156418,-92.21966052830487,-82.26956927070263,-80.43290625615309,-73.73937245964377,-81.29803548346771,-86.54789480596546,-92.18635104702813,-70.55915285779999,-67.69860165040352,-94.40429658240757,-85.27931319142222,-84.27692396185412,-72.71488705577777,-77.15618705986749,-78.49635335693037,-86.33950973150783,-79.22608235482991,-91.98616803059159,-66.81685335137084,-77.2108652467865,-77.75632733454212,-92.96926746228894,-88.94724787587813,-88.20011452661845,-92.16491777269859,,-77.29860077230077,,,-69.94515377934488,-71.81144633822025,-78.01554507775523,-91.8691268003603,-92.23316886194166,-88.12105657522488,-87.95073969732972,-77.85073755772733,-83.09084087493198,,-94.26581640432771,,,,,,,,,,,-92.31642063580043,,,,,,-94.42541362370952,,,,,,,,,,,,,,-93.12517414557843,,,,,,,,,,,,,,,,,,,,,,-93.96004290325332,,,,-94.39221857960266,,-93.19981418568264,-94.87950075387997,,,,-92.03005364944747,,-93.01886734129647,,,,,,,,,
2021.05.19 18:12:46,30.3,-8.16,-24.6,-0.49082634,-0.043096945,9.009656,0.19482753,0.07430748,0.011869112,0.004776299,0.054424014,-1.8498348,1003.1941,123.3943870014771,47.60561299852289,-91.52589418015454,-87.79999151250267,-86.57163041327256,-74.35839193673294,-73.55166573519375,-86.24491869156418,-92.21966052830487,-82.26956927070263,-80.43290625615309,-73.73937245964377,-81.29803548346771,-86.54789480596546,-92.18635104702813,-70.55915285779999,-67.69860165040352,-94.40429658240757,-85.27931319142222,-84.27692396185412,-72.71488705577777,-77.15618705986749,-78.49635335693037,-86.33950973150783,-79.22608235482991,-91.98616803059159,-66.81685335137084,-77.2108652467865,-77.75632733454212,-92.96926746228894,-88.94724787587813,-88.20011452661845,-92.16491777269859,,-77.29860077230077,,,-69.94515377934488,-71.81144633822025,-78.01554507775523,-91.8691268003603,-92.23316886194166,-88.12105657522488,-87.95073969732972,-77.85073755772733,-83.09084087493198,,-94.26581640432771,,,,,,,,,,,-92.31642063580043,,,,,,-94.42541362370952,,,,,,,,,,,,,,-93.12517414557843,,,,,,,,,,,,,,,,,,,,,,-93.96004290325332,,,,-94.39221857960266,,-93.19981418568264,-94.87950075387997,,,,-92.03005364944747,,-93.01886734129647,,,,,,,,,
2021.05.19 18:12:46,30.24,-8.34,-24.66,-0.74222517,-0.026337024,9.222747,0.048830733,0.076140076,-0.117634326,0.002846449,0.0803046,-1.861195087,1003.19995,123.37961595273265,47.62038404726736,-91.52589418015454,-87.79999151250267,-86.57163041327256,-74.35839193673294,-73.55166573519375,-86.24491869156418,-92.21966052830487,-82.26956927070263,-80.43290625615309,-73.73937245964377,-81.29803548346771,-86.54789480596546,-92.18635104702813,-70.55915285779999,-67.69860165040352,-94.40429658240757,-85.27931319142222,-84.27692396185412,-72.71488705577777,-77.15618705986749,-78.49635335693037,-86.33950973150783,-79.22608235482991,-91.98616803059159,-66.81685335137084,-77.2108652467865,-77.75632733454212,-92.96926746228894,-88.94724787587813,-88.20011452661845,-92.16491777269859,,-77.29860077230077,,,-69.94515377934488,-71.81144633822025,-78.01554507775523,-91.8691268003603,-92.23316886194166,-88.12105657522488,-87.95073969732972,-77.85073755772733,-83.09084087493198,,-94.26581640432771,,,,,,,,,,,-92.31642063580043,,,,,,-94.42541362370952,,,,,,,,,,,,,,-93.12517414557843,,,,,,,,,,,,,,,,,,,,,,-93.96004290325332,,,,-94.39221857960266,,-93.19981418568264,-94.87950075387997,,,,-92.03005364944747,,-93.01886734129647,,,,,,,,,
2021.05.19 18:12:46,30.539999,-8.4,-23.76,-0.72785956,0.32083282,9.347249,0.008513629,0.10485075,-0.10297356,-0.034206834,0.077712029,-1.82735765,1003.19995,123.36484490398819,47.635155096011815,-91.52589418015454,-87.79999151250267,-86.57163041327256,-74.35839193673294,-73.55166573519375,-86.24491869156418,-92.21966052830487,-82.26956927070263,-80.43290625615309,-73.73937245964377,-81.29803548346771,-86.54789480596546,-92.18635104702813,-70.55915285779999,-67.69860165040352,-94.40429658240757,-85.27931319142222,-84.27692396185412,-72.71488705577777,-77.15618705986749,-78.49635335693037,-86.33950973150783,-79.22608235482991,-91.98616803059159,-66.81685335137084,-77.2108652467865,-77.75632733454212,-92.96926746228894,-88.94724787587813,-88.20011452661845,-92.16491777269859,,-77.29860077230077,,,-69.94515377934488,-71.81144633822025,-78.01554507775523,-91.8691268003603,-92.23316886194166,-88.12105657522488,-87.95073969732972,-77.85073755772733,-83.09084087493198,,-94.26581640432771,,,,,,,,,,,-92.31642063580043,,,,,,-94.42541362370952,,,,,,,,,,,,,,-93.12517414557843,,,,,,,,,,,,,,,,,,,,,,-93.96004290325332,,,,-94.39221857960266,,-93.19981418568264,-94.87950075387997,,,,-92.03005364944747,,-93.01886734129647,,,,,,,,,
2021.05.19 18:12:46,30.66,-8.639999,-23.34,-1.132492,0.23224466,9.012051,0.051885065,0.0370447,-0.057769526,-0.02556379,0.125008896,-1.852028728,1003.19775,123.35007385524372,47.64992614475628,-91.52589418015454,-87.79999151250267,-86.57163041327256,-74.35839193673294,-73.55166573519375,-86.24491869156418,-92.21966052830487,-82.26956927070263,-80.43290625615309,-73.73937245964377,-81.29803548346771,-86.54789480596546,-92.18635104702813,-70.55915285779999,-67.69860165040352,-94.40429658240757,-85.27931319142222,-84.27692396185412,-72.71488705577777,-77.15618705986749,-78.49635335693037,-86.33950973150783,-79.22608235482991,-91.98616803059159,-66.81685335137084,-77.2108652467865,-77.75632733454212,-92.96926746228894,-88.94724787587813,-88.20011452661845,-92.16491777269859,,-77.29860077230077,,,-69.94515377934488,-71.81144633822025,-78.01554507775523,-91.8691268003603,-92.23316886194166,-88.12105657522488,-87.95073969732972,-77.85073755772733,-83.09084087493198,,-94.26581640432771,,,,,,,,,,,-92.31642063580043,,,,,,-94.42541362370952,,,,,,,,,,,,,,-93.12517414557843,,,,,,,,,,,,,,,,,,,,,,-93.96004290325332,,,,-94.39221857960266,,-93.19981418568264,-94.87950075387997,,,,-92.03005364944747,,-93.01886734129647,,,,,,,,,
2021.05.19 18:12:46,30.72,-8.28,-22.859999,-0.51955765,0.92658436,8.954588,0.03783516,0.029103452,0.016145168,-0.102937065,0.057956412,-1.76292479,1003.19775,123.33530280649926,47.664697193500736,-91.52589418015454,-87.79999151250267,-86.57163041327256,-74.35839193673294,-73.55166573519375,-86.24491869156418,-92.21966052830487,-82.26956927070263,-80.43290625615309,-73.73937245964377,-81.29803548346771,-86.54789480596546,-92.18635104702813,-70.55915285779999,-67.69860165040352,-94.40429658240757,-85.27931319142222,-84.27692396185412,-72.71488705577777,-77.15618705986749,-78.49635335693037,-86.33950973150783,-79.22608235482991,-91.98616803059159,-66.81685335137084,-77.2108652467865,-77.75632733454212,-92.96926746228894,-88.94724787587813,-88.20011452661845,-92.16491777269859,,-77.29860077230077,,,-69.94515377934488,-71.81144633822025,-78.01554507775523,-91.8691268003603,-92.23316886194166,-88.12105657522488,-87.95073969732972,-77.85073755772733,-83.09084087493198,,-94.26581640432771,,,,,,,,,,,-92.31642063580043,,,,,,-94.42541362370952,,,,,,,,,,,,,,-93.12517414557843,,,,,,,,,,,,,,,,,,,,,,-93.96004290325332,,,,-94.39221857960266,,-93.19981418568264,-94.87950075387997,,,,-92.03005364944747,,-93.01886734129647,,,,,,,,,
2021.05.19 18:12:46,30.42,-8.16,-22.98,-0.7829279,0.9289786,9.44302,-0.13809402,-0.027707014,-0.047995683,-0.097728558,0.082721546,-1.766763806,1003.2002,123.32053175775481,47.6794682422452,-91.52589418015454,-87.79999151250267,-86.57163041327256,-74.35839193673294,-73.55166573519375,-86.24491869156418,-92.21966052830487,-82.26956927070263,-80.43290625615309,-73.73937245964377,-81.29803548346771,-86.54789480596546,-92.18635104702813,-70.55915285779999,-67.69860165040352,-94.40429658240757,-85.27931319142222,-84.27692396185412,-72.71488705577777,-77.15618705986749,-78.49635335693037,-86.33950973150783,-79.22608235482991,-91.98616803059159,-66.81685335137084,-77.2108652467865,-77.75632733454212,-92.96926746228894,-88.94724787587813,-88.20011452661845,-92.16491777269859,,-77.29860077230077,,,-69.94515377934488,-71.81144633822025,-78.01554507775523,-91.8691268003603,-92.23316886194166,-88.12105657522488,-87.95073969732972,-77.85073755772733,-83.09084087493198,,-94.26581640432771,,,,,,,,,,,-92.31642063580043,,,,,,-94.42541362370952,,,,,,,,,,,,,,-93.12517414557843,,,,,,,,,,,,,,,,,,,,,,-93.96004290325332,,,,-94.39221857960266,,-93.19981418568264,-94.87950075387997,,,,-92.03005364944747,,-93.01886734129647,,,,,,,,,
2021.05.19 18:12:46,30.119999,-7.68,-23.22,-0.45970076,1.2234744,9.873989,-0.10327471,-0.13216498,0.03630372,-0.123148419,0.04652315,-1.728085518,1003.19824,123.30576070901034,47.69423929098966,-91.52589418015454,-87.79999151250267,-86.57163041327256,-74.35839193673294,-73.55166573519375,-86.24491869156418,-92.21966052830487,-82.26956927070263,-80.43290625615309,-73.73937245964377,-81.29803548346771,-86.54789480596546,-92.18635104702813,-70.55915285779999,-67.69860165040352,-94.40429658240757,-85.27931319142222,-84.27692396185412,-72.71488705577777,-77.15618705986749,-78.49635335693037,-86.33950973150783,-79.22608235482991,-91.98616803059159,-66.81685335137084,-77.2108652467865,-77.75632733454212,-92.96926746228894,-88.94724787587813,-88.20011452661845,-92.16491777269859,,-77.29860077230077,,,-69.94515377934488,-71.81144633822025,-78.01554507775523,-91.8691268003603,-92.23316886194166,-88.12105657522488,-87.95073969732972,-77.85073755772733,-83.09084087493198,,-94.26581640432771,,,,,,,,,,,-92.31642063580043,,,,,,-94.42541362370952,,,,,,,,,,,,,,-93.12517414557843,,,,,,,,,,,,,,,,,,,,,,-93.96004290325332,,,,-94.39221857960266,,-93.19981418568264,-94.87950075387997,,,,-92.03005364944747,,-93.01886734129647,,,,,,,,,
2021.05.19 18:12:46,29.64,-7.2599998,-23.1,-0.23224466,1.462902,9.828498,0.007291898,-0.13644102,0.06684698,-0.147717461,0.023625324,-1.696613312,1003.19824,123.29098966026588,47.70901033973412,-91.52589418015454,-87.79999151250267,-86.57163041327256,-74.35839193673294,-73.55166573519375,-86.24491869156418,-92.21966052830487,-82.26956927070263,-80.43290625615309,-73.73937245964377,-81.29803548346771,-86.54789480596546,-92.18635104702813,-70.55915285779999,-67.69860165040352,-94.40429658240757,-85.27931319142222,-84.27692396185412,-72.71488705577777,-77.15618705986749,-78.49635335693037,-86.33950973150783,-79.22608235482991,-91.98616803059159,-66.81685335137084,-77.2108652467865,-77.75632733454212,-92.96926746228894,-88.94724787587813,-88.20011452661845,-92.16491777269859,,-77.29860077230077,,,-69.94515377934488,-71.81144633822025,-78.01554507775523,-91.8691268003603,-92.23316886194166,-88.12105657522488,-87.95073969732972,-77.85073755772733,-83.09084087493198,,-94.26581640432771,,,,,,,,,,,-92.31642063580043,,,,,,-94.42541362370952,,,,,,,,,,,,,,-93.12517414557843,,,,,,,,,,,,,,,,,,,,,,-93.96004290325332,,,,-94.39221857960266,,-93.19981418568264,-94.87950075387997,,,,-92.03005364944747,,-93.01886734129647,,,,,,,,,
2021.05.19 18:12:46,28.8,-7.2599998,-23.279999,-0.35435268,1.462902,10.187639,0.08365005,-0.23295774,0.05096449,-0.142535806,0.034768593,-1.703677058,1003.1902,123.27621861152141,47.723781388478585,-91.52589418015454,-87.79999151250267,-86.57163041327256,-74.35839193673294,-73.55166573519375,-86.24491869156418,-92.21966052830487,-82.26956927070263,-80.43290625615309,-73.73937245964377,-81.29803548346771,-86.54789480596546,-92.18635104702813,-70.55915285779999,-67.69860165040352,-94.40429658240757,-85.27931319142222,-84.27692396185412,-72.71488705577777,-77.15618705986749,-78.49635335693037,-86.33950973150783,-79.22608235482991,-91.98616803059159,-66.81685335137084,-77.2108652467865,-77.75632733454212,-92.96926746228894,-88.94724787587813,-88.20011452661845,-92.16491777269859,,-77.29860077230077,,,-69.94515377934488,-71.81144633822025,-78.01554507775523,-91.8691268003603,-92.23316886194166,-88.12105657522488,-87.95073969732972,-77.85073755772733,-83.09084087493198,,-94.26581640432771,,,,,,,,,,,-92.31642063580043,,,,,,-94.42541362370952,,,,,,,,,,,,,,-93.12517414557843,,,,,,,,,,,,,,,,,,,,,,-93.96004290325332,,,,-94.39221857960266,,-93.19981418568264,-94.87950075387997,,,,-92.03005364944747,,-93.01886734129647,,,,,,,,,
2021.05.19 18:12:47,28.8,-7.2599998,-23.1,-0.30167863,1.5730386,9.996098,0.12335629,-0.23051429,0.025308147,-0.156015351,0.030170484,-1.692972302,1003.1902,123.26144756277695,47.73855243722304,,-92.88596456944579,,-70.68197860653395,-77.96288095508177,,,-89.46442467479285,-89.90148945818424,-70.38482170639051,-87.88871961803113,,-94.2984796332667,-69.16146360155025,-75.53061739827567,-90.45261377588065,-90.23477752786273,-90.042080428413,-83.42495475563892,-88.60178761405558,-70.1719801207567,-86.86002189360319,-74.08018135928633,-83.4454785483701,-46.12786095348728,-58.633885628483945,-72.6184627470798,-89.47445260328298,-88.69859988884004,-78.4634710172573,-94.67915947905527,-84.02230080076266,-75.07800476503415,-93.95563587080635,-89.05288012827498,-61.20215459650569,-61.178367940253835,-68.95627497354518,-89.37967572213807,-88.67900066555764,-78.21150986806998,-91.65026928588382,-72.50636717906238,-74.67163086087689,-89.54326459127445,-86.19811288205874,,,,,-90.03859627223513,,,,,,,,,,,,,,,,,,-93.07014447826421,,,,,,,,,,,,,,,,,,,,,,,,,,,,,,,,,,,,,,,,-92.83668809511043,,,,,-90.30281494999605,,,,,,,
2021.05.19 18:12:47,28.68,-7.56,-23.1,0.13886794,1.2546,10.762265,0.039667755,-0.18164505,-0.08525846,-0.116040602,-0.012902509,-1.737570524,1003.18945,123.2466765140325,47.753323485967506,,-92.88596456944579,,-70.68197860653395,-77.96288095508177,,,-89.46442467479285,-89.90148945818424,-70.38482170639051,-87.88871961803113,,-94.2984796332667,-69.16146360155025,-75.53061739827567,-90.45261377588065,-90.23477752786273,-90.042080428413,-83.42495475563892,-88.60178761405558,-70.1719801207567,-86.86002189360319,-74.08018135928633,-83.4454785483701,-46.12786095348728,-58.633885628483945,-72.6184627470798,-89.47445260328298,-88.69859988884004,-78.4634710172573,-94.67915947905527,-84.02230080076266,-75.07800476503415,-93.95563587080635,-89.05288012827498,-61.20215459650569,-61.178367940253835,-68.95627497354518,-89.37967572213807,-88.67900066555764,-78.21150986806998,-91.65026928588382,-72.50636717906238,-74.67163086087689,-89.54326459127445,-86.19811288205874,,,,,-90.03859627223513,,,,,,,,,,,,,,,,,,-93.07014447826421,,,,,,,,,,,,,,,,,,,,,,,,,,,,,,,,,,,,,,,,-92.83668809511043,,,,,-90.30281494999605,,,,,,,
2021.05.19 18:12:47,28.68,-7.9199996,-23.64,-0.17478207,0.047885496,10.211582,-0.13809402,0.13356142,-0.3375458,-0.004688611,0.01711439,-1.840221047,1003.1819,123.23190546528804,47.76809453471196,,-92.88596456944579,,-70.68197860653395,-77.96288095508177,,,-89.46442467479285,-89.90148945818424,-70.38482170639051,-87.88871961803113,,-94.2984796332667,-69.16146360155025,-75.53061739827567,-90.45261377588065,-90.23477752786273,-90.042080428413,-83.42495475563892,-88.60178761405558,-70.1719801207567,-86.86002189360319,-74.08018135928633,-83.4454785483701,-46.12786095348728,-58.633885628483945,-72.6184627470798,-89.47445260328298,-88.69859988884004,-78.4634710172573,-94.67915947905527,-84.02230080076266,-75.07800476503415,-93.95563587080635,-89.05288012827498,-61.20215459650569,-61.178367940253835,-68.95627497354518,-89.37967572213807,-88.67900066555764,-78.21150986806998,-91.65026928588382,-72.50636717906238,-74.67163086087689,-89.54326459127445,-86.19811288205874,,,,,-90.03859627223513,,,,,,,,,,,,,,,,,,-93.07014447826421,,,,,,,,,,,,,,,,,,,,,,,,,,,,,,,,,,,,,,,,-92.83668809511043,,,,,-90.30281494999605,,,,,,,
2021.05.19 18:12:47,28.92,-7.62,-23.76,-0.44054657,-0.47167215,9.797373,-0.13626143,0.11279199,-0.26118764,0.04805709,0.044935517,-1.877573252,1003.1819,123.21713441654357,47.78286558345643,,-92.88596456944579,,-70.68197860653395,-77.96288095508177,,,-89.46442467479285,-89.90148945818424,-70.38482170639051,-87.88871961803113,,-94.2984796332667,-69.16146360155025,-75.53061739827567,-90.45261377588065,-90.23477752786273,-90.042080428413,-83.42495475563892,-88.60178761405558,-70.1719801207567,-86.86002189360319,-74.08018135928633,-83.4454785483701,-46.12786095348728,-58.633885628483945,-72.6184627470798,-89.47445260328298,-88.69859988884004,-78.4634710172573,-94.67915947905527,-84.02230080076266,-75.07800476503415,-93.95563587080635,-89.05288012827498,-61.20215459650569,-61.178367940253835,-68.95627497354518,-89.37967572213807,-88.67900066555764,-78.21150986806998,-91.65026928588382,-72.50636717906238,-74.67163086087689,-89.54326459127445,-86.19811288205874,,,,,-90.03859627223513,,,,,,,,,,,,,,,,,,-93.07014447826421,,,,,,,,,,,,,,,,,,,,,,,,,,,,,,,,,,,,,,,,-92.83668809511043,,,,,-90.30281494999605,,,,,,,
2021.05.19 18:12:47,28.5,-7.2599998,-24.3,0.6273,-0.057462595,9.344854,0.0775414,-0.009991922,0.03874718,0.006135232,-0.067027293,-1.812046647,1003.18823,123.20236336779911,47.797636632200884,,-92.88596456944579,,-70.68197860653395,-77.96288095508177,,,-89.46442467479285,-89.90148945818424,-70.38482170639051,-87.88871961803113,,-94.2984796332667,-69.16146360155025,-75.53061739827567,-90.45261377588065,-90.23477752786273,-90.042080428413,-83.42495475563892,-88.60178761405558,-70.1719801207567,-86.86002189360319,-74.08018135928633,-83.4454785483701,-46.12786095348728,-58.633885628483945,-72.6184627470798,-89.47445260328298,-88.69859988884004,-78.4634710172573,-94.67915947905527,-84.02230080076266,-75.07800476503415,-93.95563587080635,-89.05288012827498,-61.20215459650569,-61.178367940253835,-68.95627497354518,-89.37967572213807,-88.67900066555764,-78.21150986806998,-91.65026928588382,-72.50636717906238,-74.67163086087689,-89.54326459127445,-86.19811288205874,,,,,-90.03859627223513,,,,,,,,,,,,,,,,,,-93.07014447826421,,,,,,,,,,,,,,,,,,,,,,,,,,,,,,,,,,,,,,,,-92.83668809511043,,,,,-90.30281494999605,,,,,,,
2021.05.19 18:12:47,27.96,-6.96,-24.84,0.54828894,-0.13168511,10.218765,0.019509204,-0.023430958,-0.024171937,0.012867377,-0.053603705,-1.814056873,1003.18823,123.18759231905466,47.81240768094535,,-92.88596456944579,,-70.68197860653395,-77.96288095508177,,,-89.46442467479285,-89.90148945818424,-70.38482170639051,-87.88871961803113,,-94.2984796332667,-69.16146360155025,-75.53061739827567,-90.45261377588065,-90.23477752786273,-90.042080428413,-83.42495475563892,-88.60178761405558,-70.1719801207567,-86.86002189360319,-74.08018135928633,-83.4454785483701,-46.12786095348728,-58.633885628483945,-72.6184627470798,-89.47445260328298,-88.69859988884004,-78.4634710172573,-94.67915947905527,-84.02230080076266,-75.07800476503415,-93.95563587080635,-89.05288012827498,-61.20215459650569,-61.178367940253835,-68.95627497354518,-89.37967572213807,-88.67900066555764,-78.21150986806998,-91.65026928588382,-72.50636717906238,-74.67163086087689,-89.54326459127445,-86.19811288205874,,,,,-90.03859627223513,,,,,,,,,,,,,,,,,,-93.07014447826421,,,,,,,,,,,,,,,,,,,,,,,,,,,,,,,,,,,,,,,,-92.83668809511043,,,,,-90.30281494999605,,,,,,,
2021.05.19 18:12:47,27.9,-6.2999997,-24.48,0.22506183,0.4764607,9.711179,0.012789685,0.070642285,0.032027666,-0.049010672,-0.023171393,-1.74897027,1003.18604,123.1728212703102,47.827178729689805,,-92.88596456944579,,-70.68197860653395,-77.96288095508177,,,-89.46442467479285,-89.90148945818424,-70.38482170639051,-87.88871961803113,,-94.2984796332667,-69.16146360155025,-75.53061739827567,-90.45261377588065,-90.23477752786273,-90.042080428413,-83.42495475563892,-88.60178761405558,-70.1719801207567,-86.86002189360319,-74.08018135928633,-83.4454785483701,-46.12786095348728,-58.633885628483945,-72.6184627470798,-89.47445260328298,-88.69859988884004,-78.4634710172573,-94.67915947905527,-84.02230080076266,-75.07800476503415,-93.95563587080635,-89.05288012827498,-61.20215459650569,-61.178367940253835,-68.95627497354518,-89.37967572213807,-88.67900066555764,-78.21150986806998,-91.65026928588382,-72.50636717906238,-74.67163086087689,-89.54326459127445,-86.19811288205874,,,,,-90.03859627223513,,,,,,,,,,,,,,,,,,-93.07014447826421,,,,,,,,,,,,,,,,,,,,,,,,,,,,,,,,,,,,,,,,-92.83668809511043,,,,,-90.30281494999605,,,,,,,
2021.05.19 18:12:47,27.539999,-6.66,-24.359999,0.34956414,0.91700727,8.844451,0.12824321,-0.013657115,0.11632707,-0.103232488,-0.039502993,-1.718182564,1003.1792,123.15805022156573,47.84194977843427,,-92.88596456944579,,-70.68197860653395,-77.96288095508177,,,-89.46442467479285,-89.90148945818424,-70.38482170639051,-87.88871961803113,,-94.2984796332667,-69.16146360155025,-75.53061739827567,-90.45261377588065,-90.23477752786273,-90.042080428413,-83.42495475563892,-88.60178761405558,-70.1719801207567,-86.86002189360319,-74.08018135928633,-83.4454785483701,-46.12786095348728,-58.633885628483945,-72.6184627470798,-89.47445260328298,-88.69859988884004,-78.4634710172573,-94.67915947905527,-84.02230080076266,-75.07800476503415,-93.95563587080635,-89.05288012827498,-61.20215459650569,-61.178367940253835,-68.95627497354518,-89.37967572213807,-88.67900066555764,-78.21150986806998,-91.65026928588382,-72.50636717906238,-74.67163086087689,-89.54326459127445,-86.19811288205874,,,,,-90.03859627223513,,,,,,,,,,,,,,,,,,-93.07014447826421,,,,,,,,,,,,,,,,,,,,,,,,,,,,,,,,,,,,,,,,-92.83668809511043,,,,,-90.30281494999605,,,,,,,
2021.05.19 18:12:47,27.3,-6.7799997,-23.88,0.6177229,1.0870007,8.126168,0.12518889,0.012610091,0.04180151,-0.132598028,-0.075870596,-1.702505231,1003.1792,123.14327917282127,47.85672082717873,,-92.88596456944579,,-70.68197860653395,-77.96288095508177,,,-89.46442467479285,-89.90148945818424,-70.38482170639051,-87.88871961803113,,-94.2984796332667,-69.16146360155025,-75.53061739827567,-90.45261377588065,-90.23477752786273,-90.042080428413,-83.42495475563892,-88.60178761405558,-70.1719801207567,-86.86002189360319,-74.08018135928633,-83.4454785483701,-46.12786095348728,-58.633885628483945,-72.6184627470798,-89.47445260328298,-88.69859988884004,-78.4634710172573,-94.67915947905527,-84.02230080076266,-75.07800476503415,-93.95563587080635,-89.05288012827498,-61.20215459650569,-61.178367940253835,-68.95627497354518,-89.37967572213807,-88.67900066555764,-78.21150986806998,-91.65026928588382,-72.50636717906238,-74.67163086087689,-89.54326459127445,-86.19811288205874,,,,,-90.03859627223513,,,,,,,,,,,,,,,,,,-93.07014447826421,,,,,,,,,,,,,,,,,,,,,,,,,,,,,,,,,,,,,,,,-92.83668809511043,,,,,-90.30281494999605,,,,,,,
2021.05.19 18:12:47,27.24,-7.14,-23.76,0.5458947,0.74222517,9.368797,0.003626707,-0.053363353,-0.07548462,-0.078924671,-0.05820151,-1.756636977,1003.1721,123.12850812407682,47.87149187592319,,-92.88596456944579,,-70.68197860653395,-77.96288095508177,,,-89.46442467479285,-89.90148945818424,-70.38482170639051,-87.88871961803113,,-94.2984796332667,-69.16146360155025,-75.53061739827567,-90.45261377588065,-90.23477752786273,-90.042080428413,-83.42495475563892,-88.60178761405558,-70.1719801207567,-86.86002189360319,-74.08018135928633,-83.4454785483701,-46.12786095348728,-58.633885628483945,-72.6184627470798,-89.47445260328298,-88.69859988884004,-78.4634710172573,-94.67915947905527,-84.02230080076266,-75.07800476503415,-93.95563587080635,-89.05288012827498,-61.20215459650569,-61.178367940253835,-68.95627497354518,-89.37967572213807,-88.67900066555764,-78.21150986806998,-91.65026928588382,-72.50636717906238,-74.67163086087689,-89.54326459127445,-86.19811288205874,,,,,-90.03859627223513,,,,,,,,,,,,,,,,,,-93.07014447826421,,,,,,,,,,,,,,,,,,,,,,,,,,,,,,,,,,,,,,,,-92.83668809511043,,,,,-90.30281494999605,,,,,,,
2021.05.19 18:12:47,27.24,-7.3799996,-23.519999,0.009577099,0.6249057,10.063137,-0.07517491,0.027881721,-0.13290595,-0.06201883,-0.000952,-1.784263849,1003.1721,123.11373707533235,47.886262924667655,,-92.88596456944579,,-70.68197860653395,-77.96288095508177,,,-89.46442467479285,-89.90148945818424,-70.38482170639051,-87.88871961803113,,-94.2984796332667,-69.16146360155025,-75.53061739827567,-90.45261377588065,-90.23477752786273,-90.042080428413,-83.42495475563892,-88.60178761405558,-70.1719801207567,-86.86002189360319,-74.08018135928633,-83.4454785483701,-46.12786095348728,-58.633885628483945,-72.6184627470798,-89.47445260328298,-88.69859988884004,-78.4634710172573,-94.67915947905527,-84.02230080076266,-75.07800476503415,-93.95563587080635,-89.05288012827498,-61.20215459650569,-61.178367940253835,-68.95627497354518,-89.37967572213807,-88.67900066555764,-78.21150986806998,-91.65026928588382,-72.50636717906238,-74.67163086087689,-89.54326459127445,-86.19811288205874,,,,,-90.03859627223513,,,,,,,,,,,,,,,,,,-93.07014447826421,,,,,,,,,,,,,,,,,,,,,,,,,,,,,,,,,,,,,,,,-92.83668809511043,,,,,-90.30281494999605,,,,,,,
2021.05.19 18:12:47,27.48,-7.08,-23.4,0.15802214,1.0941836,9.201198,0.051274195,0.065755375,-0.007678576,-0.118344389,-0.017172396,-1.72466886,1003.1721,123.09896602658789,47.90103397341211,,-92.88596456944579,,-70.68197860653395,-77.96288095508177,,,-89.46442467479285,-89.90148945818424,-70.38482170639051,-87.88871961803113,,-94.2984796332667,-69.16146360155025,-75.53061739827567,-90.45261377588065,-90.23477752786273,-90.042080428413,-83.42495475563892,-88.60178761405558,-70.1719801207567,-86.86002189360319,-74.08018135928633,-83.4454785483701,-46.12786095348728,-58.633885628483945,-72.6184627470798,-89.47445260328298,-88.69859988884004,-78.4634710172573,-94.67915947905527,-84.02230080076266,-75.07800476503415,-93.95563587080635,-89.05288012827498,-61.20215459650569,-61.178367940253835,-68.95627497354518,-89.37967572213807,-88.67900066555764,-78.21150986806998,-91.65026928588382,-72.50636717906238,-74.67163086087689,-89.54326459127445,-86.19811288205874,,,,,-90.03859627223513,,,,,,,,,,,,,,,,,,-93.07014447826421,,,,,,,,,,,,,,,,,,,,,,,,,,,,,,,,,,,,,,,,-92.83668809511043,,,,,-90.30281494999605,,,,,,,
2021.05.19 18:12:47,27.779999,-6.7799997,-23.34,-0.05985687,1.2138973,9.780613,0.07631967,0.031546913,0.12365745,-0.123478875,0.006119874,-1.708603263,1003.17236,123.08419497784342,47.915805022156576,,-92.88596456944579,,-70.68197860653395,-77.96288095508177,,,-89.46442467479285,-89.90148945818424,-70.38482170639051,-87.88871961803113,,-94.2984796332667,-69.16146360155025,-75.53061739827567,-90.45261377588065,-90.23477752786273,-90.042080428413,-83.42495475563892,-88.60178761405558,-70.1719801207567,-86.86002189360319,-74.08018135928633,-83.4454785483701,-46.12786095348728,-58.633885628483945,-72.6184627470798,-89.47445260328298,-88.69859988884004,-78.4634710172573,-94.67915947905527,-84.02230080076266,-75.07800476503415,-93.95563587080635,-89.05288012827498,-61.20215459650569,-61.178367940253835,-68.95627497354518,-89.37967572213807,-88.67900066555764,-78.21150986806998,-91.65026928588382,-72.50636717906238,-74.67163086087689,-89.54326459127445,-86.19811288205874,,,,,-90.03859627223513,,,,,,,,,,,,,,,,,,-93.07014447826421,,,,,,,,,,,,,,,,,,,,,,,,,,,,,,,,,,,,,,,,-92.83668809511043,,,,,-90.30281494999605,,,,,,,
2021.05.19 18:12:47,28.199999,-6.6,-23.16,-0.0670397,1.0415095,10.443827,-0.038522996,0.12439843,0.2177307,-0.099394225,0.006418986,-1.721210003,1003.17236,123.06942392909896,47.93057607090103,,-92.88596456944579,,-70.68197860653395,-77.96288095508177,,,-89.46442467479285,-89.90148945818424,-70.38482170639051,-87.88871961803113,,-94.2984796332667,-69.16146360155025,-75.53061739827567,-90.45261377588065,-90.23477752786273,-90.042080428413,-83.42495475563892,-88.60178761405558,-70.1719801207567,-86.86002189360319,-74.08018135928633,-83.4454785483701,-46.12786095348728,-58.633885628483945,-72.6184627470798,-89.47445260328298,-88.69859988884004,-78.4634710172573,-94.67915947905527,-84.02230080076266,-75.07800476503415,-93.95563587080635,-89.05288012827498,-61.20215459650569,-61.178367940253835,-68.95627497354518,-89.37967572213807,-88.67900066555764,-78.21150986806998,-91.65026928588382,-72.50636717906238,-74.67163086087689,-89.54326459127445,-86.19811288205874,,,,,-90.03859627223513,,,,,,,,,,,,,,,,,,-93.07014447826421,,,,,,,,,,,,,,,,,,,,,,,,,,,,,,,,,,,,,,,,-92.83668809511043,,,,,-90.30281494999605,,,,,,,
2021.05.19 18:12:47,28.26,-6.48,-23.22,0.1340794,0.87630457,11.2914,-0.092279136,0.05903585,0.1877983,-0.077447452,-0.011873912,-1.733711123,1003.17847,123.05465288035451,47.9453471196455,,-92.88596456944579,,-70.68197860653395,-77.96288095508177,,,-89.46442467479285,-89.90148945818424,-70.38482170639051,-87.88871961803113,,-94.2984796332667,-69.16146360155025,-75.53061739827567,-90.45261377588065,-90.23477752786273,-90.042080428413,-83.42495475563892,-88.60178761405558,-70.1719801207567,-86.86002189360319,-74.08018135928633,-83.4454785483701,-46.12786095348728,-58.633885628483945,-72.6184627470798,-89.47445260328298,-88.69859988884004,-78.4634710172573,-94.67915947905527,-84.02230080076266,-75.07800476503415,-93.95563587080635,-89.05288012827498,-61.20215459650569,-61.178367940253835,-68.95627497354518,-89.37967572213807,-88.67900066555764,-78.21150986806998,-91.65026928588382,-72.50636717906238,-74.67163086087689,-89.54326459127445,-86.19811288205874,,,,,-90.03859627223513,,,,,,,,,,,,,,,,,,-93.07014447826421,,,,,,,,,,,,,,,,,,,,,,,,,,,,,,,,,,,,,,,,-92.83668809511043,,,,,-90.30281494999605,,,,,,,
2021.05.19 18:12:47,28.68,-6.54,-23.34,0.1987248,-0.15562786,10.956202,-0.058681548,-0.041756917,0.039358046,0.014201255,-0.018136123,-1.802428365,1003.17847,123.03988183161005,47.960118168389954,,-92.88596456944579,,-70.68197860653395,-77.96288095508177,,,-89.46442467479285,-89.90148945818424,-70.38482170639051,-87.88871961803113,,-94.2984796332667,-69.16146360155025,-75.53061739827567,-90.45261377588065,-90.23477752786273,-90.042080428413,-83.42495475563892,-88.60178761405558,-70.1719801207567,-86.86002189360319,-74.08018135928633,-83.4454785483701,-46.12786095348728,-58.633885628483945,-72.6184627470798,-89.47445260328298,-88.69859988884004,-78.4634710172573,-94.67915947905527,-84.02230080076266,-75.07800476503415,-93.95563587080635,-89.05288012827498,-61.20215459650569,-61.178367940253835,-68.95627497354518,-89.37967572213807,-88.67900066555764,-78.21150986806998,-91.65026928588382,-72.50636717906238,-74.67163086087689,-89.54326459127445,-86.19811288205874,,,,,-90.03859627223513,,,,,,,,,,,,,,,,,,-93.07014447826421,,,,,,,,,,,,,,,,,,,,,,,,,,,,,,,,,,,,,,,,-92.83668809511043,,,,,-90.30281494999605,,,,,,,
2021.05.19 18:12:48,28.5,-6.48,-23.22,-0.13886794,0.31843856,8.786988,-0.046464246,0.21602821,0.054018814,-0.036219411,0.015802501,-1.767946124,1003.177,123.02511078286558,47.97488921713442,,-94.56194280373305,,-70.69042092888986,-85.02783888214407,,,,,-90.68935438979162,,,-94.36625289832513,-64.42143760520052,-78.06990909150656,,,,,,-62.06466264518619,-70.07530916383455,-48.528238165161284,-73.41741571483898,-44.49018911834723,-51.31089644535745,-61.54724046603478,-77.62512147859441,-84.0519002462245,-74.8765869168114,-86.73342495706392,-82.3850523084905,-72.3566141445271,-88.46640765463303,-79.15980396609831,-33.609389357940294,-64.74216516864085,-55.77900653371375,-79.84869032327204,-81.37163366071489,-77.51118731298973,-83.2700337097896,-76.44793869632718,-57.19902682834885,-87.32692295835828,-80.84596423722363,,-91.25674695335735,,,,,,,,,,,-92.73131798053946,,,,,,,,,,,,,,,,,-91.8160149330368,,,,,,,,,,-93.48621014981926,,,,,,,,,,,,-86.50414029970325,,,,,,,,,,,,,,,,,,,,-92.2491268896004,,,
2021.05.19 18:12:48,28.14,-6.42,-23.34,-0.18435916,0.10774237,10.058349,-0.11488115,-0.013657115,-0.015008959,-0.010709527,0.018326918,-1.7897048,1003.1797,123.01033973412112,47.989660265878875,,-94.56194280373305,,-70.69042092888986,-85.02783888214407,,,,,-90.68935438979162,,,-94.36625289832513,-64.42143760520052,-78.06990909150656,,,,,,-62.06466264518619,-70.07530916383455,-48.528238165161284,-73.41741571483898,-44.49018911834723,-51.31089644535745,-61.54724046603478,-77.62512147859441,-84.0519002462245,-74.8765869168114,-86.73342495706392,-82.3850523084905,-72.3566141445271,-88.46640765463303,-79.15980396609831,-33.609389357940294,-64.74216516864085,-55.77900653371375,-79.84869032327204,-81.37163366071489,-77.51118731298973,-83.2700337097896,-76.44793869632718,-57.19902682834885,-87.32692295835828,-80.84596423722363,,-91.25674695335735,,,,,,,,,,,-92.73131798053946,,,,,,,,,,,,,,,,,-91.8160149330368,,,,,,,,,,-93.48621014981926,,,,,,,,,,,,-86.50414029970325,,,,,,,,,,,,,,,,,,,,-92.2491268896004,,,
2021.05.19 18:12:48,28.32,-6.3599997,-23.519999,-0.37111259,0.19393626,9.205987,-0.022640498,0.092022575,0.058905736,-0.021046113,0.040290277,-1.781168699,1003.1797,122.99556868537667,48.00443131462334,,-94.56194280373305,,-70.69042092888986,-85.02783888214407,,,,,-90.68935438979162,,,-94.36625289832513,-64.42143760520052,-78.06990909150656,,,,,,-62.06466264518619,-70.07530916383455,-48.528238165161284,-73.41741571483898,-44.49018911834723,-51.31089644535745,-61.54724046603478,-77.62512147859441,-84.0519002462245,-74.8765869168114,-86.73342495706392,-82.3850523084905,-72.3566141445271,-88.46640765463303,-79.15980396609831,-33.609389357940294,-64.74216516864085,-55.77900653371375,-79.84869032327204,-81.37163366071489,-77.51118731298973,-83.2700337097896,-76.44793869632718,-57.19902682834885,-87.32692295835828,-80.84596423722363,,-91.25674695335735,,,,,,,,,,,-92.73131798053946,,,,,,,,,,,,,,,,,-91.8160149330368,,,,,,,,,,-93.48621014981926,,,,,,,,,,,,-86.50414029970325,,,,,,,,,,,,,,,,,,,,-92.2491268896004,,,
2021.05.19 18:12:48,27.96,-6.54,-23.64,-0.67279124,0.27055305,9.282603,-0.001260215,-0.06252633,0.010036516,-0.029061809,0.072352208,-1.78859365,1003.1841,122.9807976366322,48.019202363367796,,-94.56194280373305,,-70.69042092888986,-85.02783888214407,,,,,-90.68935438979162,,,-94.36625289832513,-64.42143760520052,-78.06990909150656,,,,,,-62.06466264518619,-70.07530916383455,-48.528238165161284,-73.41741571483898,-44.49018911834723,-51.31089644535745,-61.54724046603478,-77.62512147859441,-84.0519002462245,-74.8765869168114,-86.73342495706392,-82.3850523084905,-72.3566141445271,-88.46640765463303,-79.15980396609831,-33.609389357940294,-64.74216516864085,-55.77900653371375,-79.84869032327204,-81.37163366071489,-77.51118731298973,-83.2700337097896,-76.44793869632718,-57.19902682834885,-87.32692295835828,-80.84596423722363,,-91.25674695335735,,,,,,,,,,,-92.73131798053946,,,,,,,,,,,,,,,,,-91.8160149330368,,,,,,,,,,-93.48621014981926,,,,,,,,,,,,-86.50414029970325,,,,,,,,,,,,,,,,,,,,-92.2491268896004,,,
2021.05.19 18:12:48,28.08,-6.7799997,-23.64,-0.5554718,0.45251793,9.842864,-0.02752742,-0.054585088,0.023475552,-0.045868985,0.056374162,-1.778160334,1003.1841,122.96602658788774,48.03397341211226,,-94.56194280373305,,-70.69042092888986,-85.02783888214407,,,,,-90.68935438979162,,,-94.36625289832513,-64.42143760520052,-78.06990909150656,,,,,,-62.06466264518619,-70.07530916383455,-48.528238165161284,-73.41741571483898,-44.49018911834723,-51.31089644535745,-61.54724046603478,-77.62512147859441,-84.0519002462245,-74.8765869168114,-86.73342495706392,-82.3850523084905,-72.3566141445271,-88.46640765463303,-79.15980396609831,-33.609389357940294,-64.74216516864085,-55.77900653371375,-79.84869032327204,-81.37163366071489,-77.51118731298973,-83.2700337097896,-76.44793869632718,-57.19902682834885,-87.32692295835828,-80.84596423722363,,-91.25674695335735,,,,,,,,,,,-92.73131798053946,,,,,,,,,,,,,,,,,-91.8160149330368,,,,,,,,,,-93.48621014981926,,,,,,,,,,,,-86.50414029970325,,,,,,,,,,,,,,,,,,,,-92.2491268896004,,,
2021.05.19 18:12:48,28.08,-6.54,-23.34,-0.51716334,1.0055954,8.676852,0.030504778,0.0828596,-0.000348,-0.115176715,0.059532218,-1.706110001,1003.1714,122.95125553914328,48.04874446085672,,-94.56194280373305,,-70.69042092888986,-85.02783888214407,,,,,-90.68935438979162,,,-94.36625289832513,-64.42143760520052,-78.06990909150656,,,,,,-62.06466264518619,-70.07530916383455,-48.528238165161284,-73.41741571483898,-44.49018911834723,-51.31089644535745,-61.54724046603478,-77.62512147859441,-84.0519002462245,-74.8765869168114,-86.73342495706392,-82.3850523084905,-72.3566141445271,-88.46640765463303,-79.15980396609831,-33.609389357940294,-64.74216516864085,-55.77900653371375,-79.84869032327204,-81.37163366071489,-77.51118731298973,-83.2700337097896,-76.44793869632718,-57.19902682834885,-87.32692295835828,-80.84596423722363,,-91.25674695335735,,,,,,,,,,,-92.73131798053946,,,,,,,,,,,,,,,,,-91.8160149330368,,,,,,,,,,-93.48621014981926,,,,,,,,,,,,-86.50414029970325,,,,,,,,,,,,,,,,,,,,-92.2491268896004,,,
2021.05.19 18:12:48,28.199999,-6.7799997,-23.1,-0.74701375,0.90024734,8.983319,-0.026916556,0.05659239,-0.03150232,-0.099538468,0.08296477,-1.730805278,1003.1897,122.93648449039881,48.06351550960118,,-94.56194280373305,,-70.69042092888986,-85.02783888214407,,,,,-90.68935438979162,,,-94.36625289832513,-64.42143760520052,-78.06990909150656,,,,,,-62.06466264518619,-70.07530916383455,-48.528238165161284,-73.41741571483898,-44.49018911834723,-51.31089644535745,-61.54724046603478,-77.62512147859441,-84.0519002462245,-74.8765869168114,-86.73342495706392,-82.3850523084905,-72.3566141445271,-88.46640765463303,-79.15980396609831,-33.609389357940294,-64.74216516864085,-55.77900653371375,-79.84869032327204,-81.37163366071489,-77.51118731298973,-83.2700337097896,-76.44793869632718,-57.19902682834885,-87.32692295835828,-80.84596423722363,,-91.25674695335735,,,,,,,,,,,-92.73131798053946,,,,,,,,,,,,,,,,,-91.8160149330368,,,,,,,,,,-93.48621014981926,,,,,,,,,,,,-86.50414029970325,,,,,,,,,,,,,,,,,,,,-92.2491268896004,,,
2021.05.19 18:12:48,28.38,-6.48,-23.039999,-0.4189981,0.8786988,9.534002,-0.12160067,-0.004494135,-0.015619825,-0.091816969,0.043919504,-1.724220395,1003.1897,122.92171344165436,48.078286558345646,,-94.56194280373305,,-70.69042092888986,-85.02783888214407,,,,,-90.68935438979162,,,-94.36625289832513,-64.42143760520052,-78.06990909150656,,,,,,-62.06466264518619,-70.07530916383455,-48.528238165161284,-73.41741571483898,-44.49018911834723,-51.31089644535745,-61.54724046603478,-77.62512147859441,-84.0519002462245,-74.8765869168114,-86.73342495706392,-82.3850523084905,-72.3566141445271,-88.46640765463303,-79.15980396609831,-33.609389357940294,-64.74216516864085,-55.77900653371375,-79.84869032327204,-81.37163366071489,-77.51118731298973,-83.2700337097896,-76.44793869632718,-57.19902682834885,-87.32692295835828,-80.84596423722363,,-91.25674695335735,,,,,,,,,,,-92.73131798053946,,,,,,,,,,,,,,,,,-91.8160149330368,,,,,,,,,,-93.48621014981926,,,,,,,,,,,,-86.50414029970325,,,,,,,,,,,,,,,,,,,,-92.2491268896004,,,
2021.05.19 18:12:48,28.74,-6.42,-23.039999,-0.5770202,0.9337672,9.665688,-0.050129436,-0.038702592,-0.004013385,-0.096137427,0.05962703,-1.716853142,1003.1946,122.9069423929099,48.0930576070901,,-94.56194280373305,,-70.69042092888986,-85.02783888214407,,,,,-90.68935438979162,,,-94.36625289832513,-64.42143760520052,-78.06990909150656,,,,,,-62.06466264518619,-70.07530916383455,-48.528238165161284,-73.41741571483898,-44.49018911834723,-51.31089644535745,-61.54724046603478,-77.62512147859441,-84.0519002462245,-74.8765869168114,-86.73342495706392,-82.3850523084905,-72.3566141445271,-88.46640765463303,-79.15980396609831,-33.609389357940294,-64.74216516864085,-55.77900653371375,-79.84869032327204,-81.37163366071489,-77.51118731298973,-83.2700337097896,-76.44793869632718,-57.19902682834885,-87.32692295835828,-80.84596423722363,,-91.25674695335735,,,,,,,,,,,-92.73131798053946,,,,,,,,,,,,,,,,,-91.8160149330368,,,,,,,,,,-93.48621014981926,,,,,,,,,,,,-86.50414029970325,,,,,,,,,,,,,,,,,,,,-92.2491268896004,,,
2021.05.19 18:12:48,29.64,-6.3599997,-23.46,-0.2370332,1.359948,9.522031,0.01095709,0.024827396,-0.012565498,-0.141818509,0.024887996,-1.669520617,1003.1946,122.89217134416543,48.10782865583457,,-94.56194280373305,,-70.69042092888986,-85.02783888214407,,,,,-90.68935438979162,,,-94.36625289832513,-64.42143760520052,-78.06990909150656,,,,,,-62.06466264518619,-70.07530916383455,-48.528238165161284,-73.41741571483898,-44.49018911834723,-51.31089644535745,-61.54724046603478,-77.62512147859441,-84.0519002462245,-74.8765869168114,-86.73342495706392,-82.3850523084905,-72.3566141445271,-88.46640765463303,-79.15980396609831,-33.609389357940294,-64.74216516864085,-55.77900653371375,-79.84869032327204,-81.37163366071489,-77.51118731298973,-83.2700337097896,-76.44793869632718,-57.19902682834885,-87.32692295835828,-80.84596423722363,,-91.25674695335735,,,,,,,,,,,-92.73131798053946,,,,,,,,,,,,,,,,,-91.8160149330368,,,,,,,,,,-93.48621014981926,,,,,,,,,,,,-86.50414029970325,,,,,,,,,,,,,,,,,,,,-92.2491268896004,,,
2021.05.19 18:12:48,29.58,-6.06,-24.0,-0.50040346,1.063058,9.852441,0.051274195,-0.010602788,-0.07426289,-0.107344821,0.050746191,-1.686652899,1003.19434,122.87740029542097,48.122599704579024,,-94.56194280373305,,-70.69042092888986,-85.02783888214407,,,,,-90.68935438979162,,,-94.36625289832513,-64.42143760520052,-78.06990909150656,,,,,,-62.06466264518619,-70.07530916383455,-48.528238165161284,-73.41741571483898,-44.49018911834723,-51.31089644535745,-61.54724046603478,-77.62512147859441,-84.0519002462245,-74.8765869168114,-86.73342495706392,-82.3850523084905,-72.3566141445271,-88.46640765463303,-79.15980396609831,-33.609389357940294,-64.74216516864085,-55.77900653371375,-79.84869032327204,-81.37163366071489,-77.51118731298973,-83.2700337097896,-76.44793869632718,-57.19902682834885,-87.32692295835828,-80.84596423722363,,-91.25674695335735,,,,,,,,,,,-92.73131798053946,,,,,,,,,,,,,,,,,-91.8160149330368,,,,,,,,,,-93.48621014981926,,,,,,,,,,,,-86.50414029970325,,,,,,,,,,,,,,,,,,,,-92.2491268896004,,,
2021.05.19 18:12:48,29.64,-6.12,-23.88,-0.7853221,0.9337672,10.470163,0.09708909,0.011388361,-0.033334915,-0.088700458,0.074865535,-1.706435561,1003.18823,122.86262924667652,48.13737075332349,,-94.56194280373305,,-70.69042092888986,-85.02783888214407,,,,,-90.68935438979162,,,-94.36625289832513,-64.42143760520052,-78.06990909150656,,,,,,-62.06466264518619,-70.07530916383455,-48.528238165161284,-73.41741571483898,-44.49018911834723,-51.31089644535745,-61.54724046603478,-77.62512147859441,-84.0519002462245,-74.8765869168114,-86.73342495706392,-82.3850523084905,-72.3566141445271,-88.46640765463303,-79.15980396609831,-33.609389357940294,-64.74216516864085,-55.77900653371375,-79.84869032327204,-81.37163366071489,-77.51118731298973,-83.2700337097896,-76.44793869632718,-57.19902682834885,-87.32692295835828,-80.84596423722363,,-91.25674695335735,,,,,,,,,,,-92.73131798053946,,,,,,,,,,,,,,,,,-91.8160149330368,,,,,,,,,,-93.48621014981926,,,,,,,,,,,,-86.50414029970325,,,,,,,,,,,,,,,,,,,,-92.2491268896004,,,
2021.05.19 18:12:48,29.46,-6.12,-24.24,-0.00478855,0.47885495,11.2004175,0.04821987,-0.011824518,-0.010732902,-0.042727292,0.000428,-1.741563201,1003.18823,122.84785819793206,48.152141802067945,,-94.56194280373305,,-70.69042092888986,-85.02783888214407,,,,,-90.68935438979162,,,-94.36625289832513,-64.42143760520052,-78.06990909150656,,,,,,-62.06466264518619,-70.07530916383455,-48.528238165161284,-73.41741571483898,-44.49018911834723,-51.31089644535745,-61.54724046603478,-77.62512147859441,-84.0519002462245,-74.8765869168114,-86.73342495706392,-82.3850523084905,-72.3566141445271,-88.46640765463303,-79.15980396609831,-33.609389357940294,-64.74216516864085,-55.77900653371375,-79.84869032327204,-81.37163366071489,-77.51118731298973,-83.2700337097896,-76.44793869632718,-57.19902682834885,-87.32692295835828,-80.84596423722363,,-91.25674695335735,,,,,,,,,,,-92.73131798053946,,,,,,,,,,,,,,,,,-91.8160149330368,,,,,,,,,,-93.48621014981926,,,,,,,,,,,,-86.50414029970325,,,,,,,,,,,,,,,,,,,,-92.2491268896004,,,
2021.05.19 18:12:48,29.58,-6.48,-24.24,-0.13647367,-0.19393626,10.26665,-0.015310116,-0.028928746,0.02225382,0.018886013,0.013292129,-1.803843141,1003.1914,122.83308714918759,48.16691285081241,,-94.56194280373305,,-70.69042092888986,-85.02783888214407,,,,,-90.68935438979162,,,-94.36625289832513,-64.42143760520052,-78.06990909150656,,,,,,-62.06466264518619,-70.07530916383455,-48.528238165161284,-73.41741571483898,-44.49018911834723,-51.31089644535745,-61.54724046603478,-77.62512147859441,-84.0519002462245,-74.8765869168114,-86.73342495706392,-82.3850523084905,-72.3566141445271,-88.46640765463303,-79.15980396609831,-33.609389357940294,-64.74216516864085,-55.77900653371375,-79.84869032327204,-81.37163366071489,-77.51118731298973,-83.2700337097896,-76.44793869632718,-57.19902682834885,-87.32692295835828,-80.84596423722363,,-91.25674695335735,,,,,,,,,,,-92.73131798053946,,,,,,,,,,,,,,,,,-91.8160149330368,,,,,,,,,,-93.48621014981926,,,,,,,,,,,,-86.50414029970325,,,,,,,,,,,,,,,,,,,,-92.2491268896004,,,
2021.05.19 18:12:48,30.119999,-6.72,-23.82,0.21309046,0.03351985,9.895537,-0.043409918,-0.01548971,0.11815967,-0.003386572,-0.021530671,-1.784349322,1003.1914,122.81831610044313,48.181683899556866,,-94.56194280373305,,-70.69042092888986,-85.02783888214407,,,,,-90.68935438979162,,,-94.36625289832513,-64.42143760520052,-78.06990909150656,,,,,,-62.06466264518619,-70.07530916383455,-48.528238165161284,-73.41741571483898,-44.49018911834723,-51.31089644535745,-61.54724046603478,-77.62512147859441,-84.0519002462245,-74.8765869168114,-86.73342495706392,-82.3850523084905,-72.3566141445271,-88.46640765463303,-79.15980396609831,-33.609389357940294,-64.74216516864085,-55.77900653371375,-79.84869032327204,-81.37163366071489,-77.51118731298973,-83.2700337097896,-76.44793869632718,-57.19902682834885,-87.32692295835828,-80.84596423722363,,-91.25674695335735,,,,,,,,,,,-92.73131798053946,,,,,,,,,,,,,,,,,-91.8160149330368,,,,,,,,,,-93.48621014981926,,,,,,,,,,,,-86.50414029970325,,,,,,,,,,,,,,,,,,,,-92.2491268896004,,,
2021.05.19 18:12:48,30.539999,-6.96,-24.119999,0.6895511,0.4740664,9.294575,0.14534745,-0.06191547,0.10227717,-0.050821055,-0.0740529,-1.750106692,1003.18555,122.80354505169868,48.19645494830133,,-94.56194280373305,,-70.69042092888986,-85.02783888214407,,,,,-90.68935438979162,,,-94.36625289832513,-64.42143760520052,-78.06990909150656,,,,,,-62.06466264518619,-70.07530916383455,-48.528238165161284,-73.41741571483898,-44.49018911834723,-51.31089644535745,-61.54724046603478,-77.62512147859441,-84.0519002462245,-74.8765869168114,-86.73342495706392,-82.3850523084905,-72.3566141445271,-88.46640765463303,-79.15980396609831,-33.609389357940294,-64.74216516864085,-55.77900653371375,-79.84869032327204,-81.37163366071489,-77.51118731298973,-83.2700337097896,-76.44793869632718,-57.19902682834885,-87.32692295835828,-80.84596423722363,,-91.25674695335735,,,,,,,,,,,-92.73131798053946,,,,,,,,,,,,,,,,,-91.8160149330368,,,,,,,,,,-93.48621014981926,,,,,,,,,,,,-86.50414029970325,,,,,,,,,,,,,,,,,,,,-92.2491268896004,,,
2021.05.19 18:12:48,31.08,-7.44,-24.48,0.40223816,0.34477556,9.486116,0.06471323,0.011388361,-0.12068865,-0.036296699,-0.042377442,-1.773504734,1003.1858,122.78877400295421,48.21122599704579,,-94.56194280373305,,-70.69042092888986,-85.02783888214407,,,,,-90.68935438979162,,,-94.36625289832513,-64.42143760520052,-78.06990909150656,,,,,,-62.06466264518619,-70.07530916383455,-48.528238165161284,-73.41741571483898,-44.49018911834723,-51.31089644535745,-61.54724046603478,-77.62512147859441,-84.0519002462245,-74.8765869168114,-86.73342495706392,-82.3850523084905,-72.3566141445271,-88.46640765463303,-79.15980396609831,-33.609389357940294,-64.74216516864085,-55.77900653371375,-79.84869032327204,-81.37163366071489,-77.51118731298973,-83.2700337097896,-76.44793869632718,-57.19902682834885,-87.32692295835828,-80.84596423722363,,-91.25674695335735,,,,,,,,,,,-92.73131798053946,,,,,,,,,,,,,,,,,-91.8160149330368,,,,,,,,,,-93.48621014981926,,,,,,,,,,,,-86.50414029970325,,,,,,,,,,,,,,,,,,,,-92.2491268896004,,,
2021.05.19 18:12:49,30.96,-7.68,-24.6,-0.21548474,0.090982445,10.190034,0.003015842,0.060868446,-0.2727941,-0.008926338,0.021143464,-1.811008811,1003.1858,122.77400295420975,48.22599704579025,,-92.54646329045457,,-71.70510478128944,-79.8415206548254,,,,-94.83722146607305,,,,,-69.85297872915865,-82.47855239240788,,,,-94.92850956211561,,-65.38817615871137,-71.58714635859893,-57.38177727414148,-82.40216923923047,-39.129558861286164,-41.09857142699338,-52.95107744169359,-76.40309210687366,-78.71943446278823,-88.58124110515203,,,-67.42967647247256,-88.41016517932077,-78.50365504226467,-37.739398804752945,-58.5094587514209,-64.25112580000103,-81.57529635842425,-82.59421680210743,-88.11647494404933,,-80.42460160025956,-64.07411663682201,-80.70378563849849,-78.11483948402008,,,-89.29383908807597,-92.22176138807082,,,,-94.03017292180868,,,,,,,,-93.75058019365649,,,,,,,,,,-92.08159209264157,-92.87568132238695,,,,-93.78184108685466,,,,,,,,,,-93.46411439437422,,,,,,,,-91.51772904199075,,,,,,,,,-94.09768722995135,-92.30671010734973,,,-94.60847435842138,,-93.89584061072343,,,-92.43015515112086,,-92.9120976917704,,,,,,
2021.05.19 18:12:49,31.199999,-7.7999997,-24.84,-0.00478855,0.749408,8.73192,0.11358245,0.11890064,-0.16650353,-0.085614167,0.000548,-1.749894261,1003.1792,122.75923190546528,48.240768094534715,,-92.54646329045457,,-71.70510478128944,-79.8415206548254,,,,-94.83722146607305,,,,,-69.85297872915865,-82.47855239240788,,,,-94.92850956211561,,-65.38817615871137,-71.58714635859893,-57.38177727414148,-82.40216923923047,-39.129558861286164,-41.09857142699338,-52.95107744169359,-76.40309210687366,-78.71943446278823,-88.58124110515203,,,-67.42967647247256,-88.41016517932077,-78.50365504226467,-37.739398804752945,-58.5094587514209,-64.25112580000103,-81.57529635842425,-82.59421680210743,-88.11647494404933,,-80.42460160025956,-64.07411663682201,-80.70378563849849,-78.11483948402008,,,-89.29383908807597,-92.22176138807082,,,,-94.03017292180868,,,,,,,,-93.75058019365649,,,,,,,,,,-92.08159209264157,-92.87568132238695,,,,-93.78184108685466,,,,,,,,,,-93.46411439437422,,,,,,,,-91.51772904199075,,,,,,,,,-94.09768722995135,-92.30671010734973,,,-94.60847435842138,,-93.89584061072343,,,-92.43015515112086,,-92.9120976917704,,,,,,
2021.05.19 18:12:49,31.439999,-7.8599997,-24.96,0.03351985,1.0295382,8.772623,0.07570881,0.06270104,-0.12740816,-0.116822854,-0.003820942,-1.725291967,1003.1792,122.74446085672082,48.25553914327917,,-92.54646329045457,,-71.70510478128944,-79.8415206548254,,,,-94.83722146607305,,,,,-69.85297872915865,-82.47855239240788,,,,-94.92850956211561,,-65.38817615871137,-71.58714635859893,-57.38177727414148,-82.40216923923047,-39.129558861286164,-41.09857142699338,-52.95107744169359,-76.40309210687366,-78.71943446278823,-88.58124110515203,,,-67.42967647247256,-88.41016517932077,-78.50365504226467,-37.739398804752945,-58.5094587514209,-64.25112580000103,-81.57529635842425,-82.59421680210743,-88.11647494404933,,-80.42460160025956,-64.07411663682201,-80.70378563849849,-78.11483948402008,,,-89.29383908807597,-92.22176138807082,,,,-94.03017292180868,,,,,,,,-93.75058019365649,,,,,,,,,,-92.08159209264157,-92.87568132238695,,,,-93.78184108685466,,,,,,,,,,-93.46411439437422,,,,,,,,-91.51772904199075,,,,,,,,,-94.09768722995135,-92.30671010734973,,,-94.60847435842138,,-93.89584061072343,,,-92.43015515112086,,-92.9120976917704,,,,,,
2021.05.19 18:12:49,31.199999,-7.44,-24.6,0.14605077,1.2593886,8.992896,0.012178821,0.044375084,-0.13596028,-0.139119625,-0.016239254,-1.697584271,1003.1821,122.72968980797637,48.270310192023636,,-92.54646329045457,,-71.70510478128944,-79.8415206548254,,,,-94.83722146607305,,,,,-69.85297872915865,-82.47855239240788,,,,-94.92850956211561,,-65.38817615871137,-71.58714635859893,-57.38177727414148,-82.40216923923047,-39.129558861286164,-41.09857142699338,-52.95107744169359,-76.40309210687366,-78.71943446278823,-88.58124110515203,,,-67.42967647247256,-88.41016517932077,-78.50365504226467,-37.739398804752945,-58.5094587514209,-64.25112580000103,-81.57529635842425,-82.59421680210743,-88.11647494404933,,-80.42460160025956,-64.07411663682201,-80.70378563849849,-78.11483948402008,,,-89.29383908807597,-92.22176138807082,,,,-94.03017292180868,,,,,,,,-93.75058019365649,,,,,,,,,,-92.08159209264157,-92.87568132238695,,,,-93.78184108685466,,,,,,,,,,-93.46411439437422,,,,,,,,-91.51772904199075,,,,,,,,,-94.09768722995135,-92.30671010734973,,,-94.60847435842138,,-93.89584061072343,,,-92.43015515112086,,-92.9120976917704,,,,,,
2021.05.19 18:12:49,31.32,-7.3199997,-24.6,-0.23942748,1.0606637,9.70639,-0.04524251,0.01932961,-0.12924075,-0.10881009,0.024661992,-1.717029452,1003.17993,122.7149187592319,48.28508124076809,,-92.54646329045457,,-71.70510478128944,-79.8415206548254,,,,-94.83722146607305,,,,,-69.85297872915865,-82.47855239240788,,,,-94.92850956211561,,-65.38817615871137,-71.58714635859893,-57.38177727414148,-82.40216923923047,-39.129558861286164,-41.09857142699338,-52.95107744169359,-76.40309210687366,-78.71943446278823,-88.58124110515203,,,-67.42967647247256,-88.41016517932077,-78.50365504226467,-37.739398804752945,-58.5094587514209,-64.25112580000103,-81.57529635842425,-82.59421680210743,-88.11647494404933,,-80.42460160025956,-64.07411663682201,-80.70378563849849,-78.11483948402008,,,-89.29383908807597,-92.22176138807082,,,,-94.03017292180868,,,,,,,,-93.75058019365649,,,,,,,,,,-92.08159209264157,-92.87568132238695,,,,-93.78184108685466,,,,,,,,,,-93.46411439437422,,,,,,,,-91.51772904199075,,,,,,,,,-94.09768722995135,-92.30671010734973,,,-94.60847435842138,,-93.89584061072343,,,-92.43015515112086,,-92.9120976917704,,,,,,
2021.05.19 18:12:49,31.26,-7.5,-24.42,-0.007182824,1.4293821,8.9186735,0.05066333,0.07125316,-0.027226264,-0.15891695,0.000805,-1.683537602,1003.17993,122.70014771048744,48.29985228951256,,-92.54646329045457,,-71.70510478128944,-79.8415206548254,,,,-94.83722146607305,,,,,-69.85297872915865,-82.47855239240788,,,,-94.92850956211561,,-65.38817615871137,-71.58714635859893,-57.38177727414148,-82.40216923923047,-39.129558861286164,-41.09857142699338,-52.95107744169359,-76.40309210687366,-78.71943446278823,-88.58124110515203,,,-67.42967647247256,-88.41016517932077,-78.50365504226467,-37.739398804752945,-58.5094587514209,-64.25112580000103,-81.57529635842425,-82.59421680210743,-88.11647494404933,,-80.42460160025956,-64.07411663682201,-80.70378563849849,-78.11483948402008,,,-89.29383908807597,-92.22176138807082,,,,-94.03017292180868,,,,,,,,-93.75058019365649,,,,,,,,,,-92.08159209264157,-92.87568132238695,,,,-93.78184108685466,,,,,,,,,,-93.46411439437422,,,,,,,,-91.51772904199075,,,,,,,,,-94.09768722995135,-92.30671010734973,,,-94.60847435842138,,-93.89584061072343,,,-92.43015515112086,,-92.9120976917704,,,,,,
2021.05.19 18:12:49,31.26,-7.2,-24.0,-0.15083931,1.4174107,10.024829,-0.005536272,-0.023430958,0.028362472,-0.14044328,0.015045437,-1.690118074,1003.17896,122.68537666174298,48.314623338257014,,-92.54646329045457,,-71.70510478128944,-79.8415206548254,,,,-94.83722146607305,,,,,-69.85297872915865,-82.47855239240788,,,,-94.92850956211561,,-65.38817615871137,-71.58714635859893,-57.38177727414148,-82.40216923923047,-39.129558861286164,-41.09857142699338,-52.95107744169359,-76.40309210687366,-78.71943446278823,-88.58124110515203,,,-67.42967647247256,-88.41016517932077,-78.50365504226467,-37.739398804752945,-58.5094587514209,-64.25112580000103,-81.57529635842425,-82.59421680210743,-88.11647494404933,,-80.42460160025956,-64.07411663682201,-80.70378563849849,-78.11483948402008,,,-89.29383908807597,-92.22176138807082,,,,-94.03017292180868,,,,,,,,-93.75058019365649,,,,,,,,,,-92.08159209264157,-92.87568132238695,,,,-93.78184108685466,,,,,,,,,,-93.46411439437422,,,,,,,,-91.51772904199075,,,,,,,,,-94.09768722995135,-92.30671010734973,,,-94.60847435842138,,-93.89584061072343,,,-92.43015515112086,,-92.9120976917704,,,,,,
2021.05.19 18:12:49,31.98,-7.14,-24.3,-0.53392327,1.2426286,9.692024,0.07143275,0.015664417,0.101055436,-0.127324805,0.055033304,-1.693654418,1003.17896,122.67060561299853,48.32939438700148,,-92.54646329045457,,-71.70510478128944,-79.8415206548254,,,,-94.83722146607305,,,,,-69.85297872915865,-82.47855239240788,,,,-94.92850956211561,,-65.38817615871137,-71.58714635859893,-57.38177727414148,-82.40216923923047,-39.129558861286164,-41.09857142699338,-52.95107744169359,-76.40309210687366,-78.71943446278823,-88.58124110515203,,,-67.42967647247256,-88.41016517932077,-78.50365504226467,-37.739398804752945,-58.5094587514209,-64.25112580000103,-81.57529635842425,-82.59421680210743,-88.11647494404933,,-80.42460160025956,-64.07411663682201,-80.70378563849849,-78.11483948402008,,,-89.29383908807597,-92.22176138807082,,,,-94.03017292180868,,,,,,,,-93.75058019365649,,,,,,,,,,-92.08159209264157,-92.87568132238695,,,,-93.78184108685466,,,,,,,,,,-93.46411439437422,,,,,,,,-91.51772904199075,,,,,,,,,-94.09768722995135,-92.30671010734973,,,-94.60847435842138,,-93.89584061072343,,,-92.43015515112086,,-92.9120976917704,,,,,,
2021.05.19 18:12:49,32.219997,-7.5,-24.0,0.20351335,1.1468576,10.419884,0.012789685,-0.027096149,0.2794281,-0.109602369,-0.019528767,-1.719588995,1003.1738,122.65583456425406,48.344165435745936,,-92.54646329045457,,-71.70510478128944,-79.8415206548254,,,,-94.83722146607305,,,,,-69.85297872915865,-82.47855239240788,,,,-94.92850956211561,,-65.38817615871137,-71.58714635859893,-57.38177727414148,-82.40216923923047,-39.129558861286164,-41.09857142699338,-52.95107744169359,-76.40309210687366,-78.71943446278823,-88.58124110515203,,,-67.42967647247256,-88.41016517932077,-78.50365504226467,-37.739398804752945,-58.5094587514209,-64.25112580000103,-81.57529635842425,-82.59421680210743,-88.11647494404933,,-80.42460160025956,-64.07411663682201,-80.70378563849849,-78.11483948402008,,,-89.29383908807597,-92.22176138807082,,,,-94.03017292180868,,,,,,,,-93.75058019365649,,,,,,,,,,-92.08159209264157,-92.87568132238695,,,,-93.78184108685466,,,,,,,,,,-93.46411439437422,,,,,,,,-91.51772904199075,,,,,,,,,-94.09768722995135,-92.30671010734973,,,-94.60847435842138,,-93.89584061072343,,,-92.43015515112086,,-92.9120976917704,,,,,,
2021.05.19 18:12:49,32.219997,-7.56,-24.119999,-0.5961744,0.37111259,11.121407,-0.12832019,0.011388361,0.13404216,-0.033309046,0.053554766,-1.784319878,1003.1836,122.6410635155096,48.3589364844904,,-92.54646329045457,,-71.70510478128944,-79.8415206548254,,,,-94.83722146607305,,,,,-69.85297872915865,-82.47855239240788,,,,-94.92850956211561,,-65.38817615871137,-71.58714635859893,-57.38177727414148,-82.40216923923047,-39.129558861286164,-41.09857142699338,-52.95107744169359,-76.40309210687366,-78.71943446278823,-88.58124110515203,,,-67.42967647247256,-88.41016517932077,-78.50365504226467,-37.739398804752945,-58.5094587514209,-64.25112580000103,-81.57529635842425,-82.59421680210743,-88.11647494404933,,-80.42460160025956,-64.07411663682201,-80.70378563849849,-78.11483948402008,,,-89.29383908807597,-92.22176138807082,,,,-94.03017292180868,,,,,,,,-93.75058019365649,,,,,,,,,,-92.08159209264157,-92.87568132238695,,,,-93.78184108685466,,,,,,,,,,-93.46411439437422,,,,,,,,-91.51772904199075,,,,,,,,,-94.09768722995135,-92.30671010734973,,,-94.60847435842138,,-93.89584061072343,,,-92.43015515112086,,-92.9120976917704,,,,,,
2021.05.19 18:12:49,31.8,-7.8599997,-24.6,-0.36871833,0.23463893,9.284998,-0.050740298,-0.042367782,0.26598904,-0.02524549,0.039690334,-1.800606012,1003.1836,122.62629246676514,48.37370753323486,,-92.54646329045457,,-71.70510478128944,-79.8415206548254,,,,-94.83722146607305,,,,,-69.85297872915865,-82.47855239240788,,,,-94.92850956211561,,-65.38817615871137,-71.58714635859893,-57.38177727414148,-82.40216923923047,-39.129558861286164,-41.09857142699338,-52.95107744169359,-76.40309210687366,-78.71943446278823,-88.58124110515203,,,-67.42967647247256,-88.41016517932077,-78.50365504226467,-37.739398804752945,-58.5094587514209,-64.25112580000103,-81.57529635842425,-82.59421680210743,-88.11647494404933,,-80.42460160025956,-64.07411663682201,-80.70378563849849,-78.11483948402008,,,-89.29383908807597,-92.22176138807082,,,,-94.03017292180868,,,,,,,,-93.75058019365649,,,,,,,,,,-92.08159209264157,-92.87568132238695,,,,-93.78184108685466,,,,,,,,,,-93.46411439437422,,,,,,,,-91.51772904199075,,,,,,,,,-94.09768722995135,-92.30671010734973,,,-94.60847435842138,,-93.89584061072343,,,-92.43015515112086,,-92.9120976917704,,,,,,
2021.05.19 18:12:49,31.619999,-8.46,-24.359999,-0.5506832,0.12210801,9.938635,-0.15947431,0.045596812,0.26598904,-0.012266764,0.055351738,-1.833863616,1003.1804,122.61152141802069,48.38847858197932,,-92.54646329045457,,-71.70510478128944,-79.8415206548254,,,,-94.83722146607305,,,,,-69.85297872915865,-82.47855239240788,,,,-94.92850956211561,,-65.38817615871137,-71.58714635859893,-57.38177727414148,-82.40216923923047,-39.129558861286164,-41.09857142699338,-52.95107744169359,-76.40309210687366,-78.71943446278823,-88.58124110515203,,,-67.42967647247256,-88.41016517932077,-78.50365504226467,-37.739398804752945,-58.5094587514209,-64.25112580000103,-81.57529635842425,-82.59421680210743,-88.11647494404933,,-80.42460160025956,-64.07411663682201,-80.70378563849849,-78.11483948402008,,,-89.29383908807597,-92.22176138807082,,,,-94.03017292180868,,,,,,,,-93.75058019365649,,,,,,,,,,-92.08159209264157,-92.87568132238695,,,,-93.78184108685466,,,,,,,,,,-93.46411439437422,,,,,,,,-91.51772904199075,,,,,,,,,-94.09768722995135,-92.30671010734973,,,-94.60847435842138,,-93.89584061072343,,,-92.43015515112086,,-92.9120976917704,,,,,,
2021.05.19 18:12:49,31.5,-8.88,-24.72,-0.4860378,0.11492519,9.581888,0.023174394,0.019940473,0.20978944,-0.011978028,0.0506812,-1.847071648,1003.1804,122.59675036927622,48.40324963072378,,-92.54646329045457,,-71.70510478128944,-79.8415206548254,,,,-94.83722146607305,,,,,-69.85297872915865,-82.47855239240788,,,,-94.92850956211561,,-65.38817615871137,-71.58714635859893,-57.38177727414148,-82.40216923923047,-39.129558861286164,-41.09857142699338,-52.95107744169359,-76.40309210687366,-78.71943446278823,-88.58124110515203,,,-67.42967647247256,-88.41016517932077,-78.50365504226467,-37.739398804752945,-58.5094587514209,-64.25112580000103,-81.57529635842425,-82.59421680210743,-88.11647494404933,,-80.42460160025956,-64.07411663682201,-80.70378563849849,-78.11483948402008,,,-89.29383908807597,-92.22176138807082,,,,-94.03017292180868,,,,,,,,-93.75058019365649,,,,,,,,,,-92.08159209264157,-92.87568132238695,,,,-93.78184108685466,,,,,,,,,,-93.46411439437422,,,,,,,,-91.51772904199075,,,,,,,,,-94.09768722995135,-92.30671010734973,,,-94.60847435842138,,-93.89584061072343,,,-92.43015515112086,,-92.9120976917704,,,,,,
2021.05.19 18:12:49,30.84,-9.66,-24.84,-0.35914123,0.19633053,9.646533,0.013400551,-0.08451748,0.16030937,-0.020335549,0.037212893,-1.867204189,1003.1841,122.58197932053176,48.41802067946824,,-92.54646329045457,,-71.70510478128944,-79.8415206548254,,,,-94.83722146607305,,,,,-69.85297872915865,-82.47855239240788,,,,-94.92850956211561,,-65.38817615871137,-71.58714635859893,-57.38177727414148,-82.40216923923047,-39.129558861286164,-41.09857142699338,-52.95107744169359,-76.40309210687366,-78.71943446278823,-88.58124110515203,,,-67.42967647247256,-88.41016517932077,-78.50365504226467,-37.739398804752945,-58.5094587514209,-64.25112580000103,-81.57529635842425,-82.59421680210743,-88.11647494404933,,-80.42460160025956,-64.07411663682201,-80.70378563849849,-78.11483948402008,,,-89.29383908807597,-92.22176138807082,,,,-94.03017292180868,,,,,,,,-93.75058019365649,,,,,,,,,,-92.08159209264157,-92.87568132238695,,,,-93.78184108685466,,,,,,,,,,-93.46411439437422,,,,,,,,-91.51772904199075,,,,,,,,,-94.09768722995135,-92.30671010734973,,,-94.60847435842138,,-93.89584061072343,,,-92.43015515112086,,-92.9120976917704,,,,,,
2021.05.19 18:12:49,30.599998,-10.5,-24.9,-0.32562137,0.51955765,8.935433,-0.020197038,-0.063137196,0.12060313,-0.058041934,0.036425468,-1.864487886,1003.17993,122.5672082717873,48.432791728212706,,-92.54646329045457,,-71.70510478128944,-79.8415206548254,,,,-94.83722146607305,,,,,-69.85297872915865,-82.47855239240788,,,,-94.92850956211561,,-65.38817615871137,-71.58714635859893,-57.38177727414148,-82.40216923923047,-39.129558861286164,-41.09857142699338,-52.95107744169359,-76.40309210687366,-78.71943446278823,-88.58124110515203,,,-67.42967647247256,-88.41016517932077,-78.50365504226467,-37.739398804752945,-58.5094587514209,-64.25112580000103,-81.57529635842425,-82.59421680210743,-88.11647494404933,,-80.42460160025956,-64.07411663682201,-80.70378563849849,-78.11483948402008,,,-89.29383908807597,-92.22176138807082,,,,-94.03017292180868,,,,,,,,-93.75058019365649,,,,,,,,,,-92.08159209264157,-92.87568132238695,,,,-93.78184108685466,,,,,,,,,,-93.46411439437422,,,,,,,,-91.51772904199075,,,,,,,,,-94.09768722995135,-92.30671010734973,,,-94.60847435842138,,-93.89584061072343,,,-92.43015515112086,,-92.9120976917704,,,,,,
2021.05.19 18:12:49,30.0,-10.92,-25.019999,-0.50998056,0.749408,9.634562,-0.022640498,-0.25433803,0.2262828,-0.07751891,0.052883059,-1.869888306,1003.17993,122.55243722304283,48.44756277695716,,-92.54646329045457,,-71.70510478128944,-79.8415206548254,,,,-94.83722146607305,,,,,-69.85297872915865,-82.47855239240788,,,,-94.92850956211561,,-65.38817615871137,-71.58714635859893,-57.38177727414148,-82.40216923923047,-39.129558861286164,-41.09857142699338,-52.95107744169359,-76.40309210687366,-78.71943446278823,-88.58124110515203,,,-67.42967647247256,-88.41016517932077,-78.50365504226467,-37.739398804752945,-58.5094587514209,-64.25112580000103,-81.57529635842425,-82.59421680210743,-88.11647494404933,,-80.42460160025956,-64.07411663682201,-80.70378563849849,-78.11483948402008,,,-89.29383908807597,-92.22176138807082,,,,-94.03017292180868,,,,,,,,-93.75058019365649,,,,,,,,,,-92.08159209264157,-92.87568132238695,,,,-93.78184108685466,,,,,,,,,,-93.46411439437422,,,,,,,,-91.51772904199075,,,,,,,,,-94.09768722995135,-92.30671010734973,,,-94.60847435842138,,-93.89584061072343,,,-92.43015515112086,,-92.9120976917704,,,,,,
2021.05.19 18:12:49,29.279999,-11.219999,-25.32,-0.031125572,0.84039044,9.545974,0.04577641,-0.09001527,0.229948,-0.087809272,0.003260585,-1.868173361,1003.17944,122.53766617429838,48.46233382570163,,-92.54646329045457,,-71.70510478128944,-79.8415206548254,,,,-94.83722146607305,,,,,-69.85297872915865,-82.47855239240788,,,,-94.92850956211561,,-65.38817615871137,-71.58714635859893,-57.38177727414148,-82.40216923923047,-39.129558861286164,-41.09857142699338,-52.95107744169359,-76.40309210687366,-78.71943446278823,-88.58124110515203,,,-67.42967647247256,-88.41016517932077,-78.50365504226467,-37.739398804752945,-58.5094587514209,-64.25112580000103,-81.57529635842425,-82.59421680210743,-88.11647494404933,,-80.42460160025956,-64.07411663682201,-80.70378563849849,-78.11483948402008,,,-89.29383908807597,-92.22176138807082,,,,-94.03017292180868,,,,,,,,-93.75058019365649,,,,,,,,,,-92.08159209264157,-92.87568132238695,,,,-93.78184108685466,,,,,,,,,,-93.46411439437422,,,,,,,,-91.51772904199075,,,,,,,,,-94.09768722995135,-92.30671010734973,,,-94.60847435842138,,-93.89584061072343,,,-92.43015515112086,,-92.9120976917704,,,,,,
2021.05.19 18:12:50,29.039999,-11.5199995,-25.38,0.6344828,0.9888355,9.483723,-0.12954192,-0.05641768,0.09067073,-0.103661127,-0.066802748,-1.857387185,1003.17944,122.52289512555392,48.477104874446084,,,,-77.48200431979724,-85.9382100282079,,-91.1529274546496,,-91.53599282434486,-92.31823111093217,,,,-79.10568268387566,-75.4030538963392,,,,,,-59.34893435928578,-81.78051828046472,-50.84086450350067,-81.91929164677859,-37.686455319905285,-51.3394784742965,-55.61621590086425,-88.53143489053892,-77.54602965302736,-82.41546903329953,,-90.64930475845405,-56.932999576792014,-85.900992830069,,-30.0,-50.60251151175227,-64.08431536816704,-78.39304519221261,-81.4073855911801,-86.3708110376754,-85.57962399268743,-83.02919698130893,-61.58973784133433,-89.05381066120404,-67.41684110212609,-91.38412637513497,,-80.1113477831347,-79.80449862228674,-81.21271526594639,,,,-93.10355640373199,,,,,,,,,,,,,,-92.5581338161627,-90.01331485134321,,,,-93.49606924855044,,,,,,,,,,-94.35714153680136,,,,,,,,,,,,,,,,,,-94.25992521366149,,,-94.60865761543866,,,,,,,,,,,,,,,,
2021.05.19 18:12:50,29.16,-11.7,-25.32,-0.06464542,0.8475733,9.742304,-0.06906626,0.005890573,-0.06754337,-0.086778864,0.00663544,-1.885732532,1003.1731,122.50812407680945,48.49187592319055,,,,-77.48200431979724,-85.9382100282079,,-91.1529274546496,,-91.53599282434486,-92.31823111093217,,,,-79.10568268387566,-75.4030538963392,,,,,,-59.34893435928578,-81.78051828046472,-50.84086450350067,-81.91929164677859,-37.686455319905285,-51.3394784742965,-55.61621590086425,-88.53143489053892,-77.54602965302736,-82.41546903329953,,-90.64930475845405,-56.932999576792014,-85.900992830069,,-30.0,-50.60251151175227,-64.08431536816704,-78.39304519221261,-81.4073855911801,-86.3708110376754,-85.57962399268743,-83.02919698130893,-61.58973784133433,-89.05381066120404,-67.41684110212609,-91.38412637513497,,-80.1113477831347,-79.80449862228674,-81.21271526594639,,,,-93.10355640373199,,,,,,,,,,,,,,-92.5581338161627,-90.01331485134321,,,,-93.49606924855044,,,,,,,,,,-94.35714153680136,,,,,,,,,,,,,,,,,,-94.25992521366149,,,-94.60865761543866,,,,,,,,,,,,,,,,
2021.05.19 18:12:50,28.68,-12.179999,-25.32,0.43336374,1.7693691,9.12937,0.019509204,0.13233967,-0.18055344,-0.191227153,-0.047433577,-1.814114571,1003.166,122.49335302806499,48.506646971935005,,,,-77.48200431979724,-85.9382100282079,,-91.1529274546496,,-91.53599282434486,-92.31823111093217,,,,-79.10568268387566,-75.4030538963392,,,,,,-59.34893435928578,-81.78051828046472,-50.84086450350067,-81.91929164677859,-37.686455319905285,-51.3394784742965,-55.61621590086425,-88.53143489053892,-77.54602965302736,-82.41546903329953,,-90.64930475845405,-56.932999576792014,-85.900992830069,,-30.0,-50.60251151175227,-64.08431536816704,-78.39304519221261,-81.4073855911801,-86.3708110376754,-85.57962399268743,-83.02919698130893,-61.58973784133433,-89.05381066120404,-67.41684110212609,-91.38412637513497,,-80.1113477831347,-79.80449862228674,-81.21271526594639,,,,-93.10355640373199,,,,,,,,,,,,,,-92.5581338161627,-90.01331485134321,,,,-93.49606924855044,,,,,,,,,,-94.35714153680136,,,,,,,,,,,,,,,,,,-94.25992521366149,,,-94.60865761543866,,,,,,,,,,,,,,,,
2021.05.19 18:12:50,28.619999,-11.759999,-25.14,-0.45730647,1.228263,9.404712,0.007902764,0.054759793,-0.29661784,-0.129714251,0.048586983,-1.86305058,1003.166,122.47858197932054,48.52141802067947,,,,-77.48200431979724,-85.9382100282079,,-91.1529274546496,,-91.53599282434486,-92.31823111093217,,,,-79.10568268387566,-75.4030538963392,,,,,,-59.34893435928578,-81.78051828046472,-50.84086450350067,-81.91929164677859,-37.686455319905285,-51.3394784742965,-55.61621590086425,-88.53143489053892,-77.54602965302736,-82.41546903329953,,-90.64930475845405,-56.932999576792014,-85.900992830069,,-30.0,-50.60251151175227,-64.08431536816704,-78.39304519221261,-81.4073855911801,-86.3708110376754,-85.57962399268743,-83.02919698130893,-61.58973784133433,-89.05381066120404,-67.41684110212609,-91.38412637513497,,-80.1113477831347,-79.80449862228674,-81.21271526594639,,,,-93.10355640373199,,,,,,,,,,,,,,-92.5581338161627,-90.01331485134321,,,,-93.49606924855044,,,,,,,,,,-94.35714153680136,,,,,,,,,,,,,,,,,,-94.25992521366149,,,-94.60865761543866,,,,,,,,,,,,,,,,
2021.05.19 18:12:50,29.039999,-11.58,-25.56,-0.32801566,1.3216397,10.577906,0.09281304,-0.13033238,-0.15978403,-0.124240182,0.030999575,-1.853886724,1003.1704,122.46381093057607,48.536189069423926,,,,-77.48200431979724,-85.9382100282079,,-91.1529274546496,,-91.53599282434486,-92.31823111093217,,,,-79.10568268387566,-75.4030538963392,,,,,,-59.34893435928578,-81.78051828046472,-50.84086450350067,-81.91929164677859,-37.686455319905285,-51.3394784742965,-55.61621590086425,-88.53143489053892,-77.54602965302736,-82.41546903329953,,-90.64930475845405,-56.932999576792014,-85.900992830069,,-30.0,-50.60251151175227,-64.08431536816704,-78.39304519221261,-81.4073855911801,-86.3708110376754,-85.57962399268743,-83.02919698130893,-61.58973784133433,-89.05381066120404,-67.41684110212609,-91.38412637513497,,-80.1113477831347,-79.80449862228674,-81.21271526594639,,,,-93.10355640373199,,,,,,,,,,,,,,-92.5581338161627,-90.01331485134321,,,,-93.49606924855044,,,,,,,,,,-94.35714153680136,,,,,,,,,,,,,,,,,,-94.25992521366149,,,-94.60865761543866,,,,,,,,,,,,,,,,
2021.05.19 18:12:50,28.859999,-11.34,-25.92,-0.44772938,1.3623424,10.13736,0.14412571,-0.04114605,-0.16100575,-0.133459345,0.04413759,-1.839491844,1003.1704,122.44903988183161,48.55096011816839,,,,-77.48200431979724,-85.9382100282079,,-91.1529274546496,,-91.53599282434486,-92.31823111093217,,,,-79.10568268387566,-75.4030538963392,,,,,,-59.34893435928578,-81.78051828046472,-50.84086450350067,-81.91929164677859,-37.686455319905285,-51.3394784742965,-55.61621590086425,-88.53143489053892,-77.54602965302736,-82.41546903329953,,-90.64930475845405,-56.932999576792014,-85.900992830069,,-30.0,-50.60251151175227,-64.08431536816704,-78.39304519221261,-81.4073855911801,-86.3708110376754,-85.57962399268743,-83.02919698130893,-61.58973784133433,-89.05381066120404,-67.41684110212609,-91.38412637513497,,-80.1113477831347,-79.80449862228674,-81.21271526594639,,,,-93.10355640373199,,,,,,,,,,,,,,-92.5581338161627,-90.01331485134321,,,,-93.49606924855044,,,,,,,,,,-94.35714153680136,,,,,,,,,,,,,,,,,,-94.25992521366149,,,-94.60865761543866,,,,,,,,,,,,,,,,
2021.05.19 18:12:50,28.98,-11.28,-26.16,0.21309046,1.1300977,11.408719,0.14534745,-0.057028547,-0.1475667,-0.09871643,-0.018675687,-1.85793817,1003.1665,122.43426883308715,48.56573116691285,,,,-77.48200431979724,-85.9382100282079,,-91.1529274546496,,-91.53599282434486,-92.31823111093217,,,,-79.10568268387566,-75.4030538963392,,,,,,-59.34893435928578,-81.78051828046472,-50.84086450350067,-81.91929164677859,-37.686455319905285,-51.3394784742965,-55.61621590086425,-88.53143489053892,-77.54602965302736,-82.41546903329953,,-90.64930475845405,-56.932999576792014,-85.900992830069,,-30.0,-50.60251151175227,-64.08431536816704,-78.39304519221261,-81.4073855911801,-86.3708110376754,-85.57962399268743,-83.02919698130893,-61.58973784133433,-89.05381066120404,-67.41684110212609,-91.38412637513497,,-80.1113477831347,-79.80449862228674,-81.21271526594639,,,,-93.10355640373199,,,,,,,,,,,,,,-92.5581338161627,-90.01331485134321,,,,-93.49606924855044,,,,,,,,,,-94.35714153680136,,,,,,,,,,,,,,,,,,-94.25992521366149,,,-94.60865761543866,,,,,,,,,,,,,,,,
2021.05.19 18:12:50,29.099998,-11.46,-26.34,-0.21548474,0.6344828,9.1628895,0.112360716,0.098131225,-0.18116431,-0.069115438,0.023512783,-1.894945502,1003.17285,122.4194977843427,48.58050221565731,,,,-77.48200431979724,-85.9382100282079,,-91.1529274546496,,-91.53599282434486,-92.31823111093217,,,,-79.10568268387566,-75.4030538963392,,,,,,-59.34893435928578,-81.78051828046472,-50.84086450350067,-81.91929164677859,-37.686455319905285,-51.3394784742965,-55.61621590086425,-88.53143489053892,-77.54602965302736,-82.41546903329953,,-90.64930475845405,-56.932999576792014,-85.900992830069,,-30.0,-50.60251151175227,-64.08431536816704,-78.39304519221261,-81.4073855911801,-86.3708110376754,-85.57962399268743,-83.02919698130893,-61.58973784133433,-89.05381066120404,-67.41684110212609,-91.38412637513497,,-80.1113477831347,-79.80449862228674,-81.21271526594639,,,,-93.10355640373199,,,,,,,,,,,,,,-92.5581338161627,-90.01331485134321,,,,-93.49606924855044,,,,,,,,,,-94.35714153680136,,,,,,,,,,,,,,,,,,-94.25992521366149,,,-94.60865761543866,,,,,,,,,,,,,,,,
2021.05.19 18:12:50,29.22,-11.4,-26.16,0.12450229,0.43575802,9.632168,-0.056848954,-0.13460843,-0.09564317,-0.045205273,-0.012924957,-1.903815269,1003.17285,122.40472673559823,48.595273264401776,,,,-77.48200431979724,-85.9382100282079,,-91.1529274546496,,-91.53599282434486,-92.31823111093217,,,,-79.10568268387566,-75.4030538963392,,,,,,-59.34893435928578,-81.78051828046472,-50.84086450350067,-81.91929164677859,-37.686455319905285,-51.3394784742965,-55.61621590086425,-88.53143489053892,-77.54602965302736,-82.41546903329953,,-90.64930475845405,-56.932999576792014,-85.900992830069,,-30.0,-50.60251151175227,-64.08431536816704,-78.39304519221261,-81.4073855911801,-86.3708110376754,-85.57962399268743,-83.02919698130893,-61.58973784133433,-89.05381066120404,-67.41684110212609,-91.38412637513497,,-80.1113477831347,-79.80449862228674,-81.21271526594639,,,,-93.10355640373199,,,,,,,,,,,,,,-92.5581338161627,-90.01331485134321,,,,-93.49606924855044,,,,,,,,,,-94.35714153680136,,,,,,,,,,,,,,,,,,-94.25992521366149,,,-94.60865761543866,,,,,,,,,,,,,,,,
2021.05.19 18:12:50,29.4,-11.099999,-25.859999,0.32562137,0.15323359,10.079897,-0.13320711,0.026659992,-0.14084719,-0.015192806,-0.032292809,-1.911698341,1003.1775,122.38995568685377,48.61004431314623,,,,-77.48200431979724,-85.9382100282079,,-91.1529274546496,,-91.53599282434486,-92.31823111093217,,,,-79.10568268387566,-75.4030538963392,,,,,,-59.34893435928578,-81.78051828046472,-50.84086450350067,-81.91929164677859,-37.686455319905285,-51.3394784742965,-55.61621590086425,-88.53143489053892,-77.54602965302736,-82.41546903329953,,-90.64930475845405,-56.932999576792014,-85.900992830069,,-30.0,-50.60251151175227,-64.08431536816704,-78.39304519221261,-81.4073855911801,-86.3708110376754,-85.57962399268743,-83.02919698130893,-61.58973784133433,-89.05381066120404,-67.41684110212609,-91.38412637513497,,-80.1113477831347,-79.80449862228674,-81.21271526594639,,,,-93.10355640373199,,,,,,,,,,,,,,-92.5581338161627,-90.01331485134321,,,,-93.49606924855044,,,,,,,,,,-94.35714153680136,,,,,,,,,,,,,,,,,,-94.25992521366149,,,-94.60865761543866,,,,,,,,,,,,,,,,
