Timestamp,True_X,True_Y,Mean_Mag_x,Mean_Mag_y,Mean_Mag_z,Mean_Acc_x,Mean_Acc_y,Mean_Acc_z,Mean_Gyro_x,Mean_Gyro_y,Mean_Gyro_z,Mean_Orn_x,Mean_Orn_y,Mean_Orn_z,Mean_Pressure,00:1a:ab:a0:de:a4,00:1a:ac:a0:de:b5,00:1a:ac:a0:de:b7,00:1a:ac:a0:de:b8,00:1a:ac:a0:de:d3,00:1a:ac:a0:de:f5,00:1a:ac:a0:de:f6,00:1a:ac:a0:de:g9,00:1a:ac:a0:de:h3,00:1a:ac:a0:de:h4,00:1a:ac:a0:de:i8,00:1a:ac:a0:de:k7,00:1a:ac:a0:de:k8,00:1a:ac:a0:de:p1,00:1a:ac:a0:de:p3,00:1a:ac:a0:de:p4,00:1a:ac:a0:de:p5,00:1a:ac:a0:de:p6,00:1a:ac:a0:de:p7,00:1a:ac:a0:de:p8,00:1a:ac:a0:de:r2,00:1a:ac:a0:de:r5,00:1a:ac:a0:de:r6,00:1a:ac:a0:de:s1,00:1a:ac:a0:de:s2,00:1a:ac:a0:de:s3,00:1a:ac:a0:de:s4,00:1a:ac:a0:de:s5,00:1a:ac:a0:de:s6,00:1a:ac:a0:de:s7,00:1a:ac:a0:de:t5,00:1a:ac:a0:de:t7,00:1a:ac:a0:de:t9,00:1a:ac:a0:de:u1,00:1a:ac:a0:de:u3,00:1a:ac:a0:de:u4,00:1a:ac:a0:de:u5,00:1a:ac:a0:de:v7,00:1a:ac:a0:de:v8,00:1a:ac:a0:de:w2,00:1a:ac:a0:de:w3,00:1a:ac:a0:de:w6,00:1a:ac:a0:de:w7,00:1a:ac:a0:de:w8,00:1a:ac:a0:de:w9,00:1a:ac:a0:de:x1,00:1a:ac:a0:de:x2,00:1a:ac:a0:de:x3,00:1a:ac:a0:de:x4,00:1a:ac:a0:de:x7,00:1a:ab:a0:de:a1,00:1a:ac:a0:de:b6,00:1a:ac:a0:de:h7,00:1a:ac:a0:de:j7,00:1a:ac:a0:de:l2,00:1a:ac:a0:de:p2,00:1a:ac:a0:de:r1,00:1a:ac:a0:de:t8,00:1a:ac:a0:de:u2,00:1a:ac:a0:de:n3,00:1a:ac:a0:de:n8,00:1a:ac:a0:de:r9,00:1a:ac:a0:de:f9,00:1a:ac:a0:de:l1,00:1a:ac:a0:de:n6,00:1a:ac:a0:de:t3,00:1a:ac:a0:de:e9,00:1a:ac:a0:de:f8,00:1a:ac:a0:de:g8,00:1a:ac:a0:de:i2,00:1a:ac:a0:de:j8,00:1a:ac:a0:de:l7,00:1a:ac:a0:de:g5,00:1a:ac:a0:de:i3,00:1a:ac:a0:de:t1,00:1a:ac:a0:de:l8,00:1a:ac:a0:de:r7,00:1a:ac:a0:de:w4,00:1a:ac:a0:de:e8,00:1a:ac:a0:de:v1,00:1a:ac:a0:de:g2,00:1a:ac:a0:de:k2,00:1a:ac:a0:de:k4,00:1a:ac:a0:de:j9,00:1a:ac:a0:de:n4,00:1a:ac:a0:de:n7,00:1a:ac:a0:de:k6,00:1a:ac:a0:de:t4,00:1a:ac:a0:de:i1,00:1a:ac:a0:de:k9,00:1a:ac:a0:de:n9,00:1a:ac:a0:de:t6,00:1a:ac:a0:de:b3,00:1a:ac:a0:de:i6,00:1a:ac:a0:de:f7,00:1a:ab:a0:de:a2,00:1a:ac:a0:de:h6,00:1a:ac:a0:de:h2,00:1a:ac:a0:de:j6,00:1a:ac:a0:de:f3,00:1a:ac:a0:de:h9,00:1a:ac:a0:de:i9,00:1a:ab:a0:de:a7,00:1a:ac:a0:de:f2,90:9f:33:a4:06:5c,00:1a:ac:a0:de:t2,00:1a:ac:a0:de:n5,00:1a:ac:a0:de:q4,00:1a:ac:a0:de:d4,00:1a:ac:a0:de:g7,00:1a:ac:a0:de:b2,00:1a:ac:a0:de:l9,00:1a:ac:a0:de:m4,00:1a:ac:a0:de:b1,00:1a:ac:a0:de:k1,00:1a:ac:a0:de:j1,00:1a:ac:a0:de:r4,00:1a:ac:a0:de:w1,00:1a:ac:a0:de:r3,00:1a:ac:a0:de:v9,00:1a:ac:a0:de:g1,00:1a:ac:a0:de:k3,00:1a:ac:a0:de:b4,00:1a:ab:a0:de:a3,00:1a:ac:a0:de:h5,00:1a:ac:a0:de:i7,00:1a:ac:a0:de:q2,00:1a:ac:a0:de:j2,00:1a:ac:a0:de:j4,00:1a:ac:a0:de:r8,00:1a:ac:a0:de:u8,00:1a:ac:a0:de:w5,00:1a:ac:a0:de:c2,00:1a:ac:a0:de:j5,00:1a:ac:a0:de:m6,00:1a:ab:a0:de:a8,00:1a:ac:a0:de:q5,00:1a:ac:a0:de:v2,00:1a:ab:a0:de:a9,00:1a:ac:a0:de:c1,00:1a:ac:a0:de:f1,00:1a:ac:a0:de:m7,00:1a:ac:a0:de:m5,00:1a:ac:a0:de:q6,00:1a:ac:a0:de:s8,00:1a:ac:a0:de:v3,00:1a:ac:a0:de:x5,00:1a:ac:a0:de:p9,00:1a:ac:a0:de:u6,00:1a:ac:a0:de:q3,00:1a:ac:a0:de:u9,00:1a:ac:a0:de:q8,00:1a:ac:a0:de:e2,00:1a:ac:a0:de:q7,00:1a:ac:a0:de:v4,00:1a:ac:a0:de:j3,00:1a:ac:a0:de:v5,00:1a:ac:a0:de:e7
2021.01.30 163838,1.0,27.0,-37.33344771551725,-5.368965451724137,-37.63034437068966,6.280368588793103,-7.326811169827588,1.902065573275862,-0.0032049571636206895,-0.00676139374948276,0.0005067023797413794,0.8403237950185249,-1.276937250433297,-2.5605494523870536,1016.742167413793,-81.0,-64.0,-61.0,-63.0,-78.0,-88.0,-78.0,-88.0,-89.0,-72.0,-50.0,-65.0,-75.0,-82.0,-66.0,-87.0,-68.0,-69.0,-74.0,-84.0,-87.0,-51.0,-58.0,-91.0,-46.0,-46.0,-83.0,-78.0,-81.0,-87.0,-89.0,-81.0,-66.0,-87.0,-69.0,-74.0,-84.0,-81.0,-85.0,-50.0,-59.0,-91.0,-90.0,-46.0,-46.0,-72.0,-78.0,-81.0,-87.0,-85.0,-100.0,-100.0,-100.0,-100.0,-100.0,-100.0,-100.0,-100.0,-100.0,-100.0,-100.0,-100.0,-100.0,-100.0,-100.0,-100.0,-100.0,-100.0,-100.0,-100.0,-100.0,-100.0,-100.0,-100.0,-100.0,-100.0,-100.0,-100.0,-100.0,-100.0,-100.0,-100.0,-100.0,-100.0,-100.0,-100.0,-100.0,-100.0,-100.0,-100.0,-100.0,-100.0,-100.0,-100.0,-100.0,-100.0,-100.0,-100.0,-100.0,-100.0,-100.0,-100.0,-100.0,-100.0,-100.0,-100.0,-100.0,-100.0,-100.0,-100.0,-100.0,-100.0,-100.0,-100.0,-100.0,-100.0,-100.0,-100.0,-100.0,-100.0,-100.0,-100.0,-100.0,-100.0,-100.0,-100.0,-100.0,-100.0,-100.0,-100.0,-100.0,-100.0,-100.0,-100.0,-100.0,-100.0,-100.0,-100.0,-100.0,-100.0,-100.0,-100.0,-100.0,-100.0,-100.0,-100.0,-100.0,-100.0,-100.0,-100.0,-100.0,-100.0,-100.0,-100.0,-100.0,-100.0,-100.0,-100.0
2021.01.30 163851,1.0,26.0,-37.253944458715594,-3.2735779311926607,-23.879999706422016,7.240462763302751,-6.296635227522936,1.9852492064220182,0.006832045704495413,-0.008257878190642203,0.012893487948715596,0.6978598964323691,-1.3032224047074623,-2.725740434926584,1016.7412607339448,-100.0,-64.0,-65.0,-77.0,-75.0,-100.0,-78.0,-89.0,-100.0,-77.0,-55.0,-60.0,-73.0,-100.0,-72.0,-100.0,-63.0,-61.0,-100.0,-88.0,-87.0,-51.0,-73.0,-100.0,-46.0,-47.0,-69.0,-71.0,-81.0,-80.0,-84.0,-100.0,-72.0,-100.0,-61.0,-76.0,-87.0,-80.0,-86.0,-51.0,-74.0,-100.0,-100.0,-46.0,-48.0,-69.0,-71.0,-80.0,-80.0,-100.0,-91.0,-74.0,-75.0,-90.0,-90.0,-91.0,-84.0,-92.0,-65.0,-100.0,-100.0,-100.0,-100.0,-100.0,-100.0,-100.0,-100.0,-100.0,-100.0,-100.0,-100.0,-100.0,-100.0,-100.0,-100.0,-100.0,-100.0,-100.0,-100.0,-100.0,-100.0,-100.0,-100.0,-100.0,-100.0,-100.0,-100.0,-100.0,-100.0,-100.0,-100.0,-100.0,-100.0,-100.0,-100.0,-100.0,-100.0,-100.0,-100.0,-100.0,-100.0,-100.0,-100.0,-100.0,-100.0,-100.0,-100.0,-100.0,-100.0,-100.0,-100.0,-100.0,-100.0,-100.0,-100.0,-100.0,-100.0,-100.0,-100.0,-100.0,-100.0,-100.0,-100.0,-100.0,-100.0,-100.0,-100.0,-100.0,-100.0,-100.0,-100.0,-100.0,-100.0,-100.0,-100.0,-100.0,-100.0,-100.0,-100.0,-100.0,-100.0,-100.0,-100.0,-100.0,-100.0,-100.0,-100.0,-100.0,-100.0,-100.0,-100.0,-100.0,-100.0,-100.0,-100.0,-100.0,-100.0,-100.0
2021.01.30 163903,1.0,25.0,-41.07368364035088,-9.60684189473684,-21.634210228070177,7.386295797368421,-6.095634638596491,1.9205024333333334,-0.002916431519912281,-0.0017367219696491228,0.005270748839999999,0.6739275654157003,-1.3166004764406305,-2.8534494157423054,1016.7391063157895,-100.0,-63.0,-65.0,-73.0,-100.0,-100.0,-73.0,-86.0,-85.0,-68.0,-50.0,-56.0,-71.0,-100.0,-63.0,-100.0,-63.0,-64.0,-70.0,-82.0,-86.0,-49.0,-59.0,-100.0,-42.0,-33.0,-60.0,-71.0,-100.0,-84.0,-78.0,-100.0,-62.0,-100.0,-64.0,-70.0,-83.0,-78.0,-90.0,-48.0,-59.0,-100.0,-100.0,-43.0,-34.0,-58.0,-70.0,-100.0,-84.0,-100.0,-100.0,-76.0,-78.0,-87.0,-100.0,-91.0,-78.0,-89.0,-62.0,-86.0,-77.0,-82.0,-100.0,-100.0,-100.0,-100.0,-100.0,-100.0,-100.0,-100.0,-100.0,-100.0,-100.0,-100.0,-100.0,-100.0,-100.0,-100.0,-100.0,-100.0,-100.0,-100.0,-100.0,-100.0,-100.0,-100.0,-100.0,-100.0,-100.0,-100.0,-100.0,-100.0,-100.0,-100.0,-100.0,-100.0,-100.0,-100.0,-100.0,-100.0,-100.0,-100.0,-100.0,-100.0,-100.0,-100.0,-100.0,-100.0,-100.0,-100.0,-100.0,-100.0,-100.0,-100.0,-100.0,-100.0,-100.0,-100.0,-100.0,-100.0,-100.0,-100.0,-100.0,-100.0,-100.0,-100.0,-100.0,-100.0,-100.0,-100.0,-100.0,-100.0,-100.0,-100.0,-100.0,-100.0,-100.0,-100.0,-100.0,-100.0,-100.0,-100.0,-100.0,-100.0,-100.0,-100.0,-100.0,-100.0,-100.0,-100.0,-100.0,-100.0,-100.0,-100.0,-100.0,-100.0,-100.0,-100.0
2021.01.30 163926,1.0,24.0,-15.6834996625,21.27149976666667,-41.768999183333335,7.732430211666666,-5.6621606741666675,1.6945479984999998,-0.004450560641416666,-0.004559294678666668,-0.004854342493416667,0.6208058809240659,-1.3553266415993372,-1.4851337323586147,1016.7236679166667,-100.0,-64.0,-62.0,-78.0,-100.0,-100.0,-73.0,-82.0,-100.0,-79.0,-53.0,-60.0,-77.0,-100.0,-60.0,-85.0,-55.0,-55.0,-59.0,-76.0,-73.0,-52.0,-55.0,-86.0,-33.0,-34.0,-58.0,-60.0,-61.0,-75.0,-100.0,-100.0,-61.0,-86.0,-55.0,-60.0,-76.0,-100.0,-73.0,-49.0,-55.0,-100.0,-85.0,-33.0,-34.0,-57.0,-60.0,-65.0,-75.0,-100.0,-100.0,-100.0,-83.0,-100.0,-100.0,-84.0,-100.0,-85.0,-55.0,-100.0,-100.0,-100.0,-91.0,-91.0,-83.0,-83.0,-100.0,-100.0,-100.0,-100.0,-100.0,-100.0,-100.0,-100.0,-100.0,-100.0,-100.0,-100.0,-100.0,-100.0,-100.0,-100.0,-100.0,-100.0,-100.0,-100.0,-100.0,-100.0,-100.0,-100.0,-100.0,-100.0,-100.0,-100.0,-100.0,-100.0,-100.0,-100.0,-100.0,-100.0,-100.0,-100.0,-100.0,-100.0,-100.0,-100.0,-100.0,-100.0,-100.0,-100.0,-100.0,-100.0,-100.0,-100.0,-100.0,-100.0,-100.0,-100.0,-100.0,-100.0,-100.0,-100.0,-100.0,-100.0,-100.0,-100.0,-100.0,-100.0,-100.0,-100.0,-100.0,-100.0,-100.0,-100.0,-100.0,-100.0,-100.0,-100.0,-100.0,-100.0,-100.0,-100.0,-100.0,-100.0,-100.0,-100.0,-100.0,-100.0,-100.0,-100.0,-100.0,-100.0,-100.0,-100.0,-100.0,-100.0,-100.0,-100.0
2021.01.30 164040,2.0,24.0,-5.8073436578125,22.953749718749997,-41.736093078125,6.273130927343749,-7.2910718375000005,2.0514071671874996,-0.0040643282890624995,-0.0050253927109375,0.0041794680937499995,0.8350198194296876,-1.2551912432812502,-1.526248329328125,1016.7951230468751,-82.0,-100.0,-69.0,-81.0,-100.0,-100.0,-74.0,-85.0,-100.0,-100.0,-100.0,-64.0,-74.0,-73.0,-64.0,-88.0,-52.0,-61.0,-60.0,-76.0,-76.0,-52.0,-64.0,-81.0,-41.0,-40.0,-62.0,-60.0,-61.0,-73.0,-78.0,-100.0,-64.0,-88.0,-61.0,-60.0,-76.0,-65.0,-76.0,-51.0,-64.0,-100.0,-82.0,-43.0,-41.0,-62.0,-60.0,-61.0,-73.0,-100.0,-100.0,-100.0,-100.0,-86.0,-100.0,-85.0,-65.0,-87.0,-54.0,-100.0,-78.0,-100.0,-100.0,-100.0,-83.0,-100.0,-90.0,-90.0,-89.0,-75.0,-89.0,-84.0,-100.0,-100.0,-100.0,-100.0,-100.0,-100.0,-100.0,-100.0,-100.0,-100.0,-100.0,-100.0,-100.0,-100.0,-100.0,-100.0,-100.0,-100.0,-100.0,-100.0,-100.0,-100.0,-100.0,-100.0,-100.0,-100.0,-100.0,-100.0,-100.0,-100.0,-100.0,-100.0,-100.0,-100.0,-100.0,-100.0,-100.0,-100.0,-100.0,-100.0,-100.0,-100.0,-100.0,-100.0,-100.0,-100.0,-100.0,-100.0,-100.0,-100.0,-100.0,-100.0,-100.0,-100.0,-100.0,-100.0,-100.0,-100.0,-100.0,-100.0,-100.0,-100.0,-100.0,-100.0,-100.0,-100.0,-100.0,-100.0,-100.0,-100.0,-100.0,-100.0,-100.0,-100.0,-100.0,-100.0,-100.0,-100.0,-100.0,-100.0,-100.0,-100.0,-100.0,-100.0,-100.0,-100.0
2021.01.30 164320,3.0,24.0,-5.255876208247423,18.523917391752576,-43.7579376185567,7.305055856701031,-5.92049859072165,2.6340231721649485,0.0016947229771134024,0.00414737188628866,-0.018734576332989687,0.6511444984023104,-1.2249222870954533,-1.4984677304926606,1016.8021017525773,-100.0,-65.0,-58.0,-77.0,-76.0,-100.0,-72.0,-83.0,-80.0,-76.0,-62.0,-65.0,-71.0,-67.0,-61.0,-84.0,-49.0,-55.0,-60.0,-78.0,-74.0,-42.0,-59.0,-88.0,-36.0,-41.0,-56.0,-60.0,-60.0,-74.0,-79.0,-66.0,-61.0,-84.0,-55.0,-62.0,-78.0,-62.0,-74.0,-42.0,-59.0,-100.0,-87.0,-36.0,-40.0,-56.0,-60.0,-59.0,-74.0,-100.0,-85.0,-100.0,-100.0,-100.0,-100.0,-81.0,-63.0,-81.0,-50.0,-91.0,-79.0,-100.0,-100.0,-100.0,-100.0,-100.0,-100.0,-90.0,-88.0,-100.0,-90.0,-100.0,-91.0,-91.0,-87.0,-100.0,-100.0,-100.0,-100.0,-100.0,-100.0,-100.0,-100.0,-100.0,-100.0,-100.0,-100.0,-100.0,-100.0,-100.0,-100.0,-100.0,-100.0,-100.0,-100.0,-100.0,-100.0,-100.0,-100.0,-100.0,-100.0,-100.0,-100.0,-100.0,-100.0,-100.0,-100.0,-100.0,-100.0,-100.0,-100.0,-100.0,-100.0,-100.0,-100.0,-100.0,-100.0,-100.0,-100.0,-100.0,-100.0,-100.0,-100.0,-100.0,-100.0,-100.0,-100.0,-100.0,-100.0,-100.0,-100.0,-100.0,-100.0,-100.0,-100.0,-100.0,-100.0,-100.0,-100.0,-100.0,-100.0,-100.0,-100.0,-100.0,-100.0,-100.0,-100.0,-100.0,-100.0,-100.0,-100.0,-100.0,-100.0,-100.0,-100.0,-100.0,-100.0,-100.0
2021.01.30 164332,4.0,24.0,-4.423965438793103,16.574482556034482,-43.75034417241379,7.050354971551725,-6.143750419827586,2.9301589112068966,-0.005163939175086204,-0.005049917619568966,0.007294678929827585,0.6776291835924675,-1.177246111220327,-1.5755343889367992,1016.804759827586,-100.0,-63.0,-57.0,-100.0,-79.0,-82.0,-77.0,-82.0,-100.0,-69.0,-60.0,-63.0,-76.0,-100.0,-61.0,-89.0,-49.0,-51.0,-61.0,-76.0,-73.0,-45.0,-58.0,-86.0,-36.0,-35.0,-60.0,-59.0,-59.0,-73.0,-100.0,-100.0,-60.0,-90.0,-51.0,-100.0,-76.0,-61.0,-72.0,-43.0,-58.0,-100.0,-85.0,-36.0,-36.0,-59.0,-60.0,-57.0,-73.0,-100.0,-86.0,-79.0,-85.0,-100.0,-100.0,-83.0,-60.0,-84.0,-49.0,-100.0,-100.0,-75.0,-100.0,-100.0,-100.0,-100.0,-100.0,-100.0,-100.0,-100.0,-100.0,-100.0,-100.0,-100.0,-100.0,-90.0,-90.0,-91.0,-100.0,-100.0,-100.0,-100.0,-100.0,-100.0,-100.0,-100.0,-100.0,-100.0,-100.0,-100.0,-100.0,-100.0,-100.0,-100.0,-100.0,-100.0,-100.0,-100.0,-100.0,-100.0,-100.0,-100.0,-100.0,-100.0,-100.0,-100.0,-100.0,-100.0,-100.0,-100.0,-100.0,-100.0,-100.0,-100.0,-100.0,-100.0,-100.0,-100.0,-100.0,-100.0,-100.0,-100.0,-100.0,-100.0,-100.0,-100.0,-100.0,-100.0,-100.0,-100.0,-100.0,-100.0,-100.0,-100.0,-100.0,-100.0,-100.0,-100.0,-100.0,-100.0,-100.0,-100.0,-100.0,-100.0,-100.0,-100.0,-100.0,-100.0,-100.0,-100.0,-100.0,-100.0,-100.0,-100.0,-100.0,-100.0,-100.0,-100.0
2021.01.30 164402,5.0,24.0,-4.205106303563829,12.666701880319149,-40.026701484042555,6.70423692393617,-6.2750886249999995,3.428576047872341,0.016913259598244683,0.007985646440691491,-0.009866578368138298,0.6940910987397457,-1.1007515436157267,-1.6965331542999187,1016.7957995212766,-100.0,-63.0,-51.0,-71.0,-100.0,-100.0,-74.0,-82.0,-74.0,-100.0,-100.0,-55.0,-73.0,-69.0,-62.0,-85.0,-53.0,-51.0,-60.0,-76.0,-76.0,-47.0,-56.0,-86.0,-33.0,-36.0,-59.0,-66.0,-58.0,-68.0,-75.0,-100.0,-61.0,-85.0,-51.0,-59.0,-76.0,-61.0,-76.0,-46.0,-56.0,-75.0,-86.0,-32.0,-37.0,-59.0,-66.0,-56.0,-68.0,-100.0,-100.0,-74.0,-83.0,-100.0,-100.0,-84.0,-59.0,-83.0,-53.0,-86.0,-75.0,-75.0,-100.0,-100.0,-79.0,-80.0,-100.0,-92.0,-100.0,-100.0,-100.0,-100.0,-100.0,-100.0,-100.0,-100.0,-100.0,-100.0,-84.0,-100.0,-100.0,-100.0,-100.0,-100.0,-100.0,-100.0,-100.0,-100.0,-100.0,-100.0,-100.0,-100.0,-100.0,-100.0,-100.0,-100.0,-100.0,-100.0,-100.0,-100.0,-100.0,-100.0,-100.0,-100.0,-100.0,-100.0,-100.0,-100.0,-100.0,-100.0,-100.0,-100.0,-100.0,-100.0,-100.0,-100.0,-100.0,-100.0,-100.0,-100.0,-100.0,-100.0,-100.0,-100.0,-100.0,-100.0,-100.0,-100.0,-100.0,-100.0,-100.0,-100.0,-100.0,-100.0,-100.0,-100.0,-100.0,-100.0,-100.0,-100.0,-100.0,-100.0,-100.0,-100.0,-100.0,-100.0,-100.0,-100.0,-100.0,-100.0,-100.0,-100.0,-100.0,-100.0,-100.0,-100.0,-100.0,-100.0
2021.01.30 164440,6.0,24.0,-6.349743505982906,17.16564076923077,-33.90512782905983,6.203115841880342,-7.383513743589745,1.8695602683760681,0.00645181796282051,0.012567774665555557,-0.01103204366854701,0.8503270770749475,-1.2785082923041449,-1.5903106550885062,1016.8095579487182,-80.0,-59.0,-52.0,-63.0,-100.0,-100.0,-73.0,-82.0,-73.0,-100.0,-100.0,-58.0,-71.0,-100.0,-61.0,-85.0,-54.0,-59.0,-61.0,-72.0,-75.0,-54.0,-68.0,-86.0,-27.0,-34.0,-57.0,-60.0,-57.0,-72.0,-74.0,-68.0,-60.0,-84.0,-59.0,-60.0,-72.0,-61.0,-75.0,-52.0,-68.0,-76.0,-86.0,-28.0,-34.0,-58.0,-60.0,-56.0,-72.0,-84.0,-100.0,-100.0,-100.0,-100.0,-100.0,-86.0,-61.0,-86.0,-53.0,-100.0,-74.0,-75.0,-91.0,-100.0,-100.0,-100.0,-100.0,-89.0,-100.0,-69.0,-100.0,-100.0,-100.0,-100.0,-89.0,-100.0,-100.0,-100.0,-100.0,-91.0,-100.0,-100.0,-100.0,-100.0,-100.0,-100.0,-100.0,-100.0,-100.0,-100.0,-100.0,-100.0,-100.0,-100.0,-100.0,-100.0,-100.0,-100.0,-100.0,-100.0,-100.0,-100.0,-100.0,-100.0,-100.0,-100.0,-100.0,-100.0,-100.0,-100.0,-100.0,-100.0,-100.0,-100.0,-100.0,-100.0,-100.0,-100.0,-100.0,-100.0,-100.0,-100.0,-100.0,-100.0,-100.0,-100.0,-100.0,-100.0,-100.0,-100.0,-100.0,-100.0,-100.0,-100.0,-100.0,-100.0,-100.0,-100.0,-100.0,-100.0,-100.0,-100.0,-100.0,-100.0,-100.0,-100.0,-100.0,-100.0,-100.0,-100.0,-100.0,-100.0,-100.0,-100.0,-100.0,-100.0,-100.0,-100.0
2021.01.30 164453,7.0,24.0,-4.994999918965517,16.922586025862067,-33.67862023275862,6.498784244827586,-6.939970657758621,2.4899013129310346,-0.0039632724975,0.006651311470258622,0.0019390757907758618,0.7838594425341179,-1.204868392697696,-1.5647690028979861,1016.8126546551724,-100.0,-62.0,-58.0,-69.0,-72.0,-100.0,-72.0,-83.0,-100.0,-64.0,-66.0,-59.0,-66.0,-72.0,-60.0,-82.0,-49.0,-57.0,-64.0,-74.0,-74.0,-56.0,-63.0,-85.0,-36.0,-43.0,-55.0,-60.0,-54.0,-66.0,-71.0,-72.0,-58.0,-82.0,-57.0,-65.0,-74.0,-100.0,-74.0,-57.0,-63.0,-100.0,-86.0,-37.0,-43.0,-54.0,-60.0,-54.0,-66.0,-100.0,-85.0,-72.0,-84.0,-83.0,-100.0,-83.0,-60.0,-83.0,-49.0,-82.0,-68.0,-100.0,-100.0,-100.0,-81.0,-81.0,-100.0,-91.0,-100.0,-68.0,-100.0,-100.0,-100.0,-100.0,-100.0,-92.0,-100.0,-100.0,-100.0,-100.0,-88.0,-100.0,-100.0,-100.0,-100.0,-100.0,-100.0,-100.0,-100.0,-100.0,-100.0,-100.0,-100.0,-100.0,-100.0,-100.0,-100.0,-100.0,-100.0,-100.0,-100.0,-100.0,-100.0,-100.0,-100.0,-100.0,-100.0,-100.0,-100.0,-100.0,-100.0,-100.0,-100.0,-100.0,-100.0,-100.0,-100.0,-100.0,-100.0,-100.0,-100.0,-100.0,-100.0,-100.0,-100.0,-100.0,-100.0,-100.0,-100.0,-100.0,-100.0,-100.0,-100.0,-100.0,-100.0,-100.0,-100.0,-100.0,-100.0,-100.0,-100.0,-100.0,-100.0,-100.0,-100.0,-100.0,-100.0,-100.0,-100.0,-100.0,-100.0,-100.0,-100.0,-100.0,-100.0,-100.0,-100.0,-100.0
2021.01.30 164505,8.0,24.0,-4.047652106956522,20.353564991304346,-33.76121688695652,6.371248540869564,-6.941960366086957,2.8298246330434775,-0.0011417070399999995,0.003957184942086956,0.0018879720124347823,0.7832492755806965,-1.1528010855550352,-1.4975973585377569,1016.802121304348,-100.0,-100.0,-57.0,-71.0,-100.0,-100.0,-74.0,-80.0,-73.0,-65.0,-69.0,-100.0,-73.0,-71.0,-59.0,-85.0,-46.0,-53.0,-59.0,-79.0,-73.0,-57.0,-63.0,-80.0,-37.0,-39.0,-61.0,-56.0,-53.0,-65.0,-72.0,-71.0,-59.0,-85.0,-53.0,-58.0,-79.0,-61.0,-74.0,-57.0,-63.0,-100.0,-80.0,-38.0,-40.0,-61.0,-57.0,-54.0,-65.0,-100.0,-100.0,-77.0,-100.0,-100.0,-100.0,-82.0,-60.0,-82.0,-48.0,-80.0,-78.0,-100.0,-100.0,-100.0,-100.0,-100.0,-100.0,-100.0,-90.0,-69.0,-89.0,-100.0,-100.0,-100.0,-100.0,-91.0,-100.0,-100.0,-100.0,-90.0,-100.0,-90.0,-86.0,-100.0,-100.0,-100.0,-100.0,-100.0,-100.0,-100.0,-100.0,-100.0,-100.0,-100.0,-100.0,-100.0,-100.0,-100.0,-100.0,-100.0,-100.0,-100.0,-100.0,-100.0,-100.0,-100.0,-100.0,-100.0,-100.0,-100.0,-100.0,-100.0,-100.0,-100.0,-100.0,-100.0,-100.0,-100.0,-100.0,-100.0,-100.0,-100.0,-100.0,-100.0,-100.0,-100.0,-100.0,-100.0,-100.0,-100.0,-100.0,-100.0,-100.0,-100.0,-100.0,-100.0,-100.0,-100.0,-100.0,-100.0,-100.0,-100.0,-100.0,-100.0,-100.0,-100.0,-100.0,-100.0,-100.0,-100.0,-100.0,-100.0,-100.0,-100.0,-100.0,-100.0,-100.0,-100.0
2021.01.30 164520,9.0,24.0,0.36536585138211386,23.879024097560976,-32.653658235772355,5.649379030081301,-7.332534736585365,3.423618309756098,-0.007550329343333334,0.010198936808699186,0.0012156964033333336,0.8333154437018604,-1.0265045694219388,-1.4413261544413682,1016.7934510569106,-100.0,-100.0,-54.0,-74.0,-100.0,-100.0,-74.0,-83.0,-69.0,-65.0,-100.0,-58.0,-76.0,-100.0,-61.0,-80.0,-49.0,-52.0,-57.0,-75.0,-77.0,-57.0,-66.0,-79.0,-43.0,-38.0,-62.0,-57.0,-53.0,-63.0,-73.0,-100.0,-61.0,-81.0,-52.0,-57.0,-76.0,-61.0,-77.0,-57.0,-67.0,-100.0,-79.0,-42.0,-38.0,-62.0,-57.0,-53.0,-63.0,-100.0,-100.0,-73.0,-100.0,-86.0,-100.0,-84.0,-59.0,-83.0,-47.0,-84.0,-72.0,-100.0,-100.0,-100.0,-77.0,-76.0,-100.0,-92.0,-100.0,-66.0,-100.0,-100.0,-100.0,-87.0,-89.0,-100.0,-100.0,-100.0,-100.0,-100.0,-100.0,-100.0,-100.0,-90.0,-89.0,-90.0,-100.0,-100.0,-100.0,-100.0,-100.0,-100.0,-100.0,-100.0,-100.0,-100.0,-100.0,-100.0,-100.0,-100.0,-100.0,-100.0,-100.0,-100.0,-100.0,-100.0,-100.0,-100.0,-100.0,-100.0,-100.0,-100.0,-100.0,-100.0,-100.0,-100.0,-100.0,-100.0,-100.0,-100.0,-100.0,-100.0,-100.0,-100.0,-100.0,-100.0,-100.0,-100.0,-100.0,-100.0,-100.0,-100.0,-100.0,-100.0,-100.0,-100.0,-100.0,-100.0,-100.0,-100.0,-100.0,-100.0,-100.0,-100.0,-100.0,-100.0,-100.0,-100.0,-100.0,-100.0,-100.0,-100.0,-100.0,-100.0,-100.0,-100.0,-100.0,-100.0
2021.01.30 164532,10.0,24.0,-2.4897435547008553,26.340512495726497,-32.261025205128206,5.783647061538461,-7.30532124957265,3.2263159982905987,-0.002361349275555556,0.00480404254957265,0.005137611615726496,0.8342705944664458,-1.0619132926321437,-1.4068096224059405,1016.7990847008548,-100.0,-64.0,-50.0,-68.0,-70.0,-100.0,-73.0,-79.0,-100.0,-64.0,-66.0,-60.0,-71.0,-68.0,-68.0,-81.0,-50.0,-48.0,-58.0,-74.0,-74.0,-58.0,-71.0,-83.0,-39.0,-39.0,-60.0,-57.0,-53.0,-69.0,-100.0,-68.0,-66.0,-81.0,-48.0,-59.0,-74.0,-64.0,-73.0,-59.0,-70.0,-77.0,-83.0,-39.0,-39.0,-60.0,-57.0,-52.0,-69.0,-100.0,-87.0,-100.0,-87.0,-82.0,-100.0,-84.0,-63.0,-84.0,-50.0,-100.0,-69.0,-73.0,-100.0,-100.0,-100.0,-100.0,-100.0,-100.0,-100.0,-100.0,-100.0,-100.0,-100.0,-100.0,-100.0,-100.0,-100.0,-100.0,-100.0,-100.0,-100.0,-100.0,-84.0,-85.0,-100.0,-100.0,-100.0,-100.0,-100.0,-100.0,-100.0,-100.0,-100.0,-100.0,-100.0,-100.0,-100.0,-100.0,-100.0,-100.0,-100.0,-100.0,-100.0,-100.0,-100.0,-100.0,-100.0,-100.0,-100.0,-100.0,-100.0,-100.0,-100.0,-100.0,-100.0,-100.0,-100.0,-100.0,-100.0,-100.0,-100.0,-100.0,-100.0,-100.0,-100.0,-100.0,-100.0,-100.0,-100.0,-100.0,-100.0,-100.0,-100.0,-100.0,-100.0,-100.0,-100.0,-100.0,-100.0,-100.0,-100.0,-100.0,-100.0,-100.0,-100.0,-100.0,-100.0,-100.0,-100.0,-100.0,-100.0,-100.0,-100.0,-100.0,-100.0,-100.0,-100.0,-100.0
2021.01.30 164543,11.0,24.0,-3.6259321539830505,28.159830203389838,-31.953050372881357,5.8732169694915255,-7.330437566949153,3.008000496610169,0.0003782083183050843,1.0559299999991332e-06,0.0042129512934745775,0.8378136223655636,-1.0974718645467596,-1.3634606529090365,1016.8094755932203,-70.0,-63.0,-58.0,-63.0,-81.0,-72.0,-69.0,-80.0,-70.0,-60.0,-73.0,-62.0,-72.0,-68.0,-66.0,-85.0,-45.0,-52.0,-51.0,-70.0,-75.0,-62.0,-73.0,-80.0,-44.0,-42.0,-56.0,-59.0,-55.0,-73.0,-61.0,-63.0,-68.0,-85.0,-53.0,-51.0,-70.0,-100.0,-75.0,-62.0,-73.0,-100.0,-80.0,-43.0,-41.0,-57.0,-59.0,-55.0,-73.0,-79.0,-100.0,-78.0,-100.0,-80.0,-100.0,-82.0,-68.0,-82.0,-45.0,-78.0,-67.0,-100.0,-100.0,-100.0,-100.0,-100.0,-90.0,-100.0,-88.0,-100.0,-91.0,-100.0,-75.0,-100.0,-87.0,-100.0,-88.0,-87.0,-100.0,-100.0,-100.0,-100.0,-100.0,-100.0,-87.0,-89.0,-90.0,-91.0,-100.0,-100.0,-100.0,-100.0,-100.0,-100.0,-100.0,-100.0,-100.0,-100.0,-100.0,-100.0,-100.0,-100.0,-100.0,-100.0,-100.0,-100.0,-100.0,-100.0,-100.0,-100.0,-100.0,-100.0,-100.0,-100.0,-100.0,-100.0,-100.0,-100.0,-100.0,-100.0,-100.0,-100.0,-100.0,-100.0,-100.0,-100.0,-100.0,-100.0,-100.0,-100.0,-100.0,-100.0,-100.0,-100.0,-100.0,-100.0,-100.0,-100.0,-100.0,-100.0,-100.0,-100.0,-100.0,-100.0,-100.0,-100.0,-100.0,-100.0,-100.0,-100.0,-100.0,-100.0,-100.0,-100.0,-100.0,-100.0,-100.0,-100.0
2021.01.30 164554,12.0,24.0,-4.252066063636364,29.922148355371903,-31.712230925619835,5.684384361157025,-7.58100619338843,2.732421604132232,0.002150907190413223,-0.0006086541316528925,0.0057764377309917365,0.876816942672099,-1.122739212572082,-1.3628744093839786,1016.8187209917355,-100.0,-63.0,-64.0,-72.0,-80.0,-100.0,-69.0,-79.0,-74.0,-59.0,-100.0,-59.0,-75.0,-68.0,-71.0,-100.0,-49.0,-50.0,-100.0,-71.0,-74.0,-61.0,-70.0,-83.0,-48.0,-42.0,-53.0,-57.0,-53.0,-66.0,-65.0,-100.0,-70.0,-100.0,-50.0,-100.0,-71.0,-65.0,-74.0,-61.0,-69.0,-100.0,-83.0,-48.0,-43.0,-53.0,-57.0,-53.0,-66.0,-100.0,-81.0,-75.0,-100.0,-81.0,-80.0,-80.0,-67.0,-80.0,-48.0,-72.0,-65.0,-100.0,-100.0,-100.0,-100.0,-100.0,-100.0,-89.0,-100.0,-65.0,-89.0,-100.0,-100.0,-100.0,-100.0,-100.0,-100.0,-100.0,-100.0,-100.0,-100.0,-100.0,-100.0,-100.0,-100.0,-100.0,-100.0,-89.0,-100.0,-100.0,-100.0,-100.0,-100.0,-100.0,-100.0,-100.0,-100.0,-100.0,-100.0,-100.0,-100.0,-100.0,-100.0,-100.0,-100.0,-100.0,-100.0,-100.0,-100.0,-100.0,-100.0,-100.0,-100.0,-100.0,-100.0,-100.0,-100.0,-100.0,-100.0,-100.0,-100.0,-100.0,-100.0,-100.0,-100.0,-100.0,-100.0,-100.0,-100.0,-100.0,-100.0,-100.0,-100.0,-100.0,-100.0,-100.0,-100.0,-100.0,-100.0,-100.0,-100.0,-100.0,-100.0,-100.0,-100.0,-100.0,-100.0,-100.0,-100.0,-100.0,-100.0,-100.0,-100.0,-100.0,-100.0,-100.0,-100.0,-100.0
2021.01.30 164606,13.0,24.0,-4.009043413043479,28.005912660869566,-33.856695182608696,5.622069539130434,-7.531597392173913,2.988866933913043,0.004228595247826087,-0.002316135447826087,0.0020685756866086957,0.8686403969059819,-1.082297586876413,-1.4553711963736493,1016.8115099130436,-70.0,-64.0,-59.0,-72.0,-72.0,-67.0,-62.0,-79.0,-100.0,-58.0,-100.0,-69.0,-76.0,-70.0,-65.0,-90.0,-44.0,-51.0,-61.0,-65.0,-76.0,-67.0,-71.0,-77.0,-45.0,-42.0,-57.0,-57.0,-56.0,-75.0,-100.0,-100.0,-64.0,-89.0,-51.0,-60.0,-65.0,-61.0,-76.0,-67.0,-73.0,-100.0,-77.0,-46.0,-43.0,-54.0,-57.0,-57.0,-75.0,-86.0,-100.0,-75.0,-100.0,-86.0,-100.0,-80.0,-62.0,-80.0,-44.0,-72.0,-100.0,-100.0,-91.0,-100.0,-79.0,-77.0,-91.0,-100.0,-89.0,-100.0,-89.0,-100.0,-100.0,-100.0,-85.0,-100.0,-100.0,-100.0,-100.0,-100.0,-100.0,-100.0,-100.0,-100.0,-84.0,-100.0,-100.0,-100.0,-85.0,-86.0,-87.0,-87.0,-100.0,-100.0,-100.0,-100.0,-100.0,-100.0,-100.0,-100.0,-100.0,-100.0,-100.0,-100.0,-100.0,-100.0,-100.0,-100.0,-100.0,-100.0,-100.0,-100.0,-100.0,-100.0,-100.0,-100.0,-100.0,-100.0,-100.0,-100.0,-100.0,-100.0,-100.0,-100.0,-100.0,-100.0,-100.0,-100.0,-100.0,-100.0,-100.0,-100.0,-100.0,-100.0,-100.0,-100.0,-100.0,-100.0,-100.0,-100.0,-100.0,-100.0,-100.0,-100.0,-100.0,-100.0,-100.0,-100.0,-100.0,-100.0,-100.0,-100.0,-100.0,-100.0,-100.0,-100.0,-100.0,-100.0
2021.01.30 164617,14.0,24.0,-1.0273043259130434,26.299304095652168,-34.29495612173913,5.579722113913043,-7.527808208695651,3.10393786,0.0007811904000000004,-0.004042493726521739,0.007178596193826088,0.8673226833343506,-1.0630925282188084,-1.4493899397228076,1016.8046559999998,-100.0,-68.0,-52.0,-65.0,-100.0,-64.0,-55.0,-82.0,-100.0,-55.0,-100.0,-67.0,-79.0,-61.0,-66.0,-100.0,-40.0,-46.0,-52.0,-69.0,-75.0,-61.0,-78.0,-79.0,-50.0,-43.0,-50.0,-55.0,-59.0,-68.0,-100.0,-67.0,-65.0,-100.0,-46.0,-52.0,-69.0,-100.0,-75.0,-61.0,-79.0,-100.0,-78.0,-51.0,-43.0,-50.0,-55.0,-58.0,-68.0,-100.0,-100.0,-100.0,-100.0,-88.0,-100.0,-80.0,-100.0,-80.0,-40.0,-81.0,-68.0,-100.0,-100.0,-100.0,-100.0,-100.0,-100.0,-100.0,-100.0,-63.0,-100.0,-100.0,-100.0,-100.0,-100.0,-91.0,-100.0,-100.0,-100.0,-100.0,-100.0,-100.0,-100.0,-81.0,-100.0,-100.0,-92.0,-100.0,-80.0,-100.0,-91.0,-90.0,-100.0,-100.0,-100.0,-100.0,-100.0,-100.0,-100.0,-100.0,-100.0,-100.0,-100.0,-100.0,-100.0,-100.0,-100.0,-100.0,-100.0,-100.0,-100.0,-100.0,-100.0,-100.0,-100.0,-100.0,-100.0,-100.0,-100.0,-100.0,-100.0,-100.0,-100.0,-100.0,-100.0,-100.0,-100.0,-100.0,-100.0,-100.0,-100.0,-100.0,-100.0,-100.0,-100.0,-100.0,-100.0,-100.0,-100.0,-100.0,-100.0,-100.0,-100.0,-100.0,-100.0,-100.0,-100.0,-100.0,-100.0,-100.0,-100.0,-100.0,-100.0,-100.0,-100.0,-100.0,-100.0,-100.0
2021.01.30 164627,15.0,24.0,0.5810256394017094,24.212820213675215,-34.62153799145299,5.477404985470086,-7.477115597435897,3.4230762888888893,0.002650878384444445,-0.00460954732974359,0.007262587303076922,0.8582546420586414,-1.0122837994852636,-1.4931064487522483,1016.8045361538462,-70.0,-100.0,-68.0,-70.0,-100.0,-100.0,-62.0,-75.0,-69.0,-68.0,-100.0,-71.0,-75.0,-65.0,-67.0,-88.0,-43.0,-43.0,-55.0,-65.0,-72.0,-69.0,-77.0,-79.0,-48.0,-45.0,-51.0,-55.0,-61.0,-65.0,-69.0,-65.0,-68.0,-88.0,-43.0,-55.0,-65.0,-56.0,-71.0,-69.0,-76.0,-76.0,-79.0,-48.0,-45.0,-51.0,-55.0,-58.0,-65.0,-100.0,-100.0,-77.0,-100.0,-86.0,-100.0,-78.0,-56.0,-78.0,-43.0,-67.0,-69.0,-100.0,-91.0,-100.0,-100.0,-100.0,-90.0,-84.0,-100.0,-100.0,-84.0,-100.0,-100.0,-100.0,-100.0,-89.0,-100.0,-100.0,-100.0,-100.0,-100.0,-100.0,-100.0,-100.0,-100.0,-100.0,-100.0,-100.0,-100.0,-100.0,-88.0,-88.0,-80.0,-92.0,-100.0,-100.0,-100.0,-100.0,-100.0,-100.0,-100.0,-100.0,-100.0,-100.0,-100.0,-100.0,-100.0,-100.0,-100.0,-100.0,-100.0,-100.0,-100.0,-100.0,-100.0,-100.0,-100.0,-100.0,-100.0,-100.0,-100.0,-100.0,-100.0,-100.0,-100.0,-100.0,-100.0,-100.0,-100.0,-100.0,-100.0,-100.0,-100.0,-100.0,-100.0,-100.0,-100.0,-100.0,-100.0,-100.0,-100.0,-100.0,-100.0,-100.0,-100.0,-100.0,-100.0,-100.0,-100.0,-100.0,-100.0,-100.0,-100.0,-100.0,-100.0,-100.0,-100.0,-100.0
2021.01.30 164638,16.0,24.0,0.5918918826126125,24.639999711711713,-30.29891836936937,5.5581256288288285,-7.574471732432431,3.006648341441441,-0.00226878113981982,0.0043347107490991,0.0052129643001801815,0.8753203937599251,-1.0749955306182037,-1.3820054638493169,1016.8068537837837,-58.0,-75.0,-69.0,-67.0,-100.0,-100.0,-55.0,-77.0,-69.0,-71.0,-100.0,-75.0,-82.0,-61.0,-68.0,-100.0,-42.0,-42.0,-45.0,-66.0,-73.0,-71.0,-77.0,-76.0,-51.0,-46.0,-53.0,-56.0,-61.0,-65.0,-64.0,-61.0,-68.0,-100.0,-42.0,-45.0,-66.0,-64.0,-72.0,-70.0,-78.0,-100.0,-73.0,-51.0,-46.0,-54.0,-56.0,-61.0,-66.0,-100.0,-80.0,-100.0,-100.0,-84.0,-100.0,-86.0,-66.0,-86.0,-42.0,-63.0,-63.0,-100.0,-100.0,-100.0,-100.0,-100.0,-100.0,-79.0,-100.0,-56.0,-86.0,-100.0,-100.0,-100.0,-84.0,-100.0,-100.0,-100.0,-100.0,-100.0,-100.0,-100.0,-100.0,-100.0,-83.0,-100.0,-100.0,-100.0,-71.0,-80.0,-87.0,-86.0,-100.0,-100.0,-73.0,-100.0,-100.0,-100.0,-100.0,-100.0,-100.0,-100.0,-100.0,-100.0,-100.0,-100.0,-100.0,-100.0,-100.0,-100.0,-100.0,-100.0,-100.0,-100.0,-100.0,-100.0,-100.0,-100.0,-100.0,-100.0,-100.0,-100.0,-100.0,-100.0,-100.0,-100.0,-100.0,-100.0,-100.0,-100.0,-100.0,-100.0,-100.0,-100.0,-100.0,-100.0,-100.0,-100.0,-100.0,-100.0,-100.0,-100.0,-100.0,-100.0,-100.0,-100.0,-100.0,-100.0,-100.0,-100.0,-100.0,-100.0,-100.0,-100.0,-100.0,-100.0,-100.0,-100.0
2021.01.30 164648,17.0,24.0,1.0529203405309733,25.84407045132743,-28.925840318584076,5.740581078761061,-7.3604669053097345,3.1728167079646012,-0.0032035123338053097,0.0009936777022123892,0.0006315967349557522,0.8427751976831824,-1.0661781261452532,-1.2889701180753455,1016.8199913274337,-64.0,-100.0,-56.0,-68.0,-76.0,-100.0,-56.0,-76.0,-71.0,-73.0,-100.0,-75.0,-91.0,-100.0,-70.0,-100.0,-38.0,-43.0,-44.0,-55.0,-71.0,-100.0,-80.0,-78.0,-54.0,-54.0,-54.0,-59.0,-60.0,-68.0,-64.0,-100.0,-70.0,-100.0,-43.0,-43.0,-55.0,-64.0,-71.0,-100.0,-81.0,-100.0,-78.0,-54.0,-54.0,-54.0,-59.0,-60.0,-68.0,-100.0,-100.0,-77.0,-100.0,-100.0,-76.0,-75.0,-64.0,-75.0,-38.0,-61.0,-64.0,-100.0,-100.0,-100.0,-77.0,-100.0,-88.0,-80.0,-100.0,-64.0,-85.0,-100.0,-100.0,-100.0,-100.0,-89.0,-100.0,-100.0,-100.0,-100.0,-78.0,-100.0,-100.0,-100.0,-100.0,-100.0,-100.0,-100.0,-100.0,-100.0,-88.0,-87.0,-79.0,-100.0,-100.0,-87.0,-83.0,-100.0,-100.0,-100.0,-100.0,-100.0,-100.0,-100.0,-100.0,-100.0,-100.0,-100.0,-100.0,-100.0,-100.0,-100.0,-100.0,-100.0,-100.0,-100.0,-100.0,-100.0,-100.0,-100.0,-100.0,-100.0,-100.0,-100.0,-100.0,-100.0,-100.0,-100.0,-100.0,-100.0,-100.0,-100.0,-100.0,-100.0,-100.0,-100.0,-100.0,-100.0,-100.0,-100.0,-100.0,-100.0,-100.0,-100.0,-100.0,-100.0,-100.0,-100.0,-100.0,-100.0,-100.0,-100.0,-100.0,-100.0,-100.0,-100.0,-100.0,-100.0
2021.01.30 164659,18.0,24.0,2.202105220087719,26.586841710526315,-30.273683771929825,5.536676492982457,-7.522895456140351,3.198583121052632,0.0030046746251754385,-0.003022754207543859,0.003968641414824562,0.8661654727500782,-1.0471486982546354,-1.3145459660312586,1016.8234621052633,-60.0,-100.0,-58.0,-73.0,-82.0,-67.0,-57.0,-71.0,-69.0,-72.0,-100.0,-76.0,-88.0,-65.0,-76.0,-100.0,-39.0,-43.0,-44.0,-58.0,-77.0,-72.0,-81.0,-82.0,-56.0,-45.0,-50.0,-57.0,-60.0,-63.0,-63.0,-100.0,-100.0,-100.0,-43.0,-44.0,-58.0,-66.0,-77.0,-72.0,-82.0,-72.0,-81.0,-55.0,-45.0,-50.0,-57.0,-61.0,-63.0,-100.0,-100.0,-100.0,-100.0,-86.0,-100.0,-82.0,-62.0,-82.0,-39.0,-69.0,-63.0,-72.0,-100.0,-100.0,-100.0,-100.0,-88.0,-80.0,-100.0,-52.0,-86.0,-100.0,-100.0,-100.0,-88.0,-100.0,-100.0,-100.0,-100.0,-100.0,-100.0,-100.0,-100.0,-78.0,-85.0,-89.0,-100.0,-90.0,-100.0,-75.0,-84.0,-83.0,-100.0,-100.0,-80.0,-100.0,-100.0,-100.0,-100.0,-100.0,-100.0,-100.0,-100.0,-100.0,-100.0,-100.0,-100.0,-100.0,-100.0,-100.0,-100.0,-100.0,-100.0,-100.0,-100.0,-100.0,-100.0,-100.0,-100.0,-100.0,-100.0,-100.0,-100.0,-100.0,-100.0,-100.0,-100.0,-100.0,-100.0,-100.0,-100.0,-100.0,-100.0,-100.0,-100.0,-100.0,-100.0,-100.0,-100.0,-100.0,-100.0,-100.0,-100.0,-100.0,-100.0,-100.0,-100.0,-100.0,-100.0,-100.0,-100.0,-100.0,-100.0,-100.0,-100.0,-100.0,-100.0,-100.0
2021.01.30 164709,19.0,24.0,3.773097299115045,26.695220946902655,-32.413273973451325,5.430935678761062,-7.697487567256638,2.964408848672566,0.003975505647876107,-0.003779720635044247,0.004004870440707965,0.8936864190397009,-1.0712132548863909,-1.3367976129582497,1016.8114394690266,-100.0,-100.0,-60.0,-64.0,-78.0,-100.0,-60.0,-74.0,-73.0,-78.0,-100.0,-75.0,-89.0,-64.0,-71.0,-100.0,-41.0,-33.0,-50.0,-59.0,-73.0,-100.0,-77.0,-82.0,-60.0,-53.0,-53.0,-54.0,-50.0,-66.0,-61.0,-62.0,-72.0,-100.0,-34.0,-51.0,-59.0,-100.0,-73.0,-100.0,-76.0,-78.0,-83.0,-60.0,-53.0,-51.0,-54.0,-57.0,-66.0,-86.0,-100.0,-71.0,-100.0,-100.0,-62.0,-80.0,-100.0,-79.0,-40.0,-69.0,-60.0,-100.0,-100.0,-100.0,-80.0,-100.0,-86.0,-80.0,-100.0,-49.0,-88.0,-100.0,-100.0,-100.0,-100.0,-100.0,-100.0,-100.0,-100.0,-100.0,-100.0,-85.0,-82.0,-100.0,-100.0,-88.0,-90.0,-90.0,-66.0,-76.0,-84.0,-85.0,-100.0,-100.0,-76.0,-100.0,-100.0,-83.0,-100.0,-100.0,-100.0,-100.0,-100.0,-100.0,-100.0,-100.0,-100.0,-100.0,-100.0,-100.0,-100.0,-100.0,-100.0,-100.0,-100.0,-100.0,-100.0,-100.0,-100.0,-100.0,-100.0,-100.0,-100.0,-100.0,-100.0,-100.0,-100.0,-100.0,-100.0,-100.0,-100.0,-100.0,-100.0,-100.0,-100.0,-100.0,-100.0,-100.0,-100.0,-100.0,-100.0,-100.0,-100.0,-100.0,-100.0,-100.0,-100.0,-100.0,-100.0,-100.0,-100.0,-100.0,-100.0,-100.0,-100.0,-100.0,-100.0,-100.0
2021.01.30 164731,20.0,24.0,9.980869313043478,27.31982575652174,-33.71791275652174,4.741309525217392,-7.981804333043478,3.4633497469565215,0.001992297186347826,0.0007806857084347829,0.0024935252366086957,0.9365043059639309,-0.939936129424883,-1.3719702057216479,1016.8177476521739,-100.0,-100.0,-57.0,-69.0,-100.0,-100.0,-59.0,-100.0,-67.0,-74.0,-100.0,-76.0,-85.0,-58.0,-76.0,-100.0,-39.0,-38.0,-48.0,-60.0,-70.0,-72.0,-83.0,-83.0,-56.0,-48.0,-50.0,-54.0,-58.0,-66.0,-64.0,-100.0,-77.0,-100.0,-38.0,-47.0,-60.0,-100.0,-71.0,-100.0,-83.0,-100.0,-83.0,-58.0,-48.0,-49.0,-54.0,-58.0,-67.0,-100.0,-100.0,-81.0,-100.0,-62.0,-100.0,-78.0,-68.0,-78.0,-39.0,-56.0,-61.0,-100.0,-100.0,-100.0,-80.0,-100.0,-86.0,-78.0,-88.0,-51.0,-85.0,-100.0,-100.0,-100.0,-100.0,-91.0,-100.0,-100.0,-100.0,-100.0,-100.0,-100.0,-86.0,-100.0,-100.0,-89.0,-100.0,-88.0,-71.0,-73.0,-81.0,-81.0,-100.0,-100.0,-100.0,-100.0,-100.0,-100.0,-90.0,-100.0,-100.0,-100.0,-100.0,-100.0,-100.0,-100.0,-100.0,-100.0,-100.0,-100.0,-100.0,-100.0,-100.0,-100.0,-100.0,-100.0,-100.0,-100.0,-100.0,-100.0,-100.0,-100.0,-100.0,-100.0,-100.0,-100.0,-100.0,-100.0,-100.0,-100.0,-100.0,-100.0,-100.0,-100.0,-100.0,-100.0,-100.0,-100.0,-100.0,-100.0,-100.0,-100.0,-100.0,-100.0,-100.0,-100.0,-100.0,-100.0,-100.0,-100.0,-100.0,-100.0,-100.0,-100.0,-100.0,-100.0,-100.0,-100.0
2021.01.30 164742,21.0,24.0,9.822930825862068,29.120689155172414,-37.60293037931034,4.847766636206897,-7.943151177586207,3.379436344827586,0.0018768096512068965,-0.0013689281457758618,0.00534622936413793,0.9310448668126402,-0.9619908635986263,-1.3918486145035973,1016.8199431034484,-66.0,-100.0,-58.0,-74.0,-100.0,-100.0,-56.0,-100.0,-63.0,-100.0,-100.0,-100.0,-90.0,-61.0,-77.0,-100.0,-27.0,-37.0,-48.0,-59.0,-76.0,-73.0,-81.0,-81.0,-58.0,-51.0,-46.0,-55.0,-63.0,-61.0,-60.0,-63.0,-100.0,-100.0,-37.0,-48.0,-59.0,-100.0,-78.0,-73.0,-82.0,-100.0,-81.0,-54.0,-51.0,-46.0,-55.0,-56.0,-61.0,-100.0,-84.0,-100.0,-100.0,-81.0,-100.0,-78.0,-100.0,-78.0,-27.0,-63.0,-58.0,-100.0,-90.0,-86.0,-66.0,-76.0,-100.0,-80.0,-83.0,-45.0,-81.0,-100.0,-100.0,-100.0,-100.0,-89.0,-90.0,-90.0,-100.0,-100.0,-100.0,-100.0,-100.0,-100.0,-100.0,-100.0,-89.0,-100.0,-67.0,-72.0,-89.0,-89.0,-100.0,-100.0,-73.0,-100.0,-100.0,-100.0,-100.0,-100.0,-100.0,-100.0,-100.0,-100.0,-100.0,-100.0,-100.0,-100.0,-100.0,-100.0,-100.0,-100.0,-100.0,-100.0,-100.0,-100.0,-100.0,-100.0,-100.0,-100.0,-100.0,-100.0,-100.0,-100.0,-100.0,-100.0,-100.0,-100.0,-100.0,-100.0,-100.0,-100.0,-100.0,-100.0,-100.0,-100.0,-100.0,-100.0,-100.0,-100.0,-100.0,-100.0,-100.0,-100.0,-100.0,-100.0,-100.0,-100.0,-100.0,-100.0,-100.0,-100.0,-100.0,-100.0,-100.0,-100.0,-100.0,-100.0
2021.01.30 164753,22.0,24.0,10.837565004347827,31.753042913043483,-40.25426012173913,4.691675167826087,-8.066624128695652,3.3262306765217393,0.004361392085826087,-0.005736980780521738,0.0045067246928695666,0.9513636920763099,-0.9541416069735651,-1.4016401145769202,1016.8284773913041,-65.0,-100.0,-100.0,-76.0,-100.0,-100.0,-55.0,-73.0,-66.0,-100.0,-100.0,-82.0,-100.0,-53.0,-76.0,-100.0,-40.0,-37.0,-52.0,-66.0,-78.0,-72.0,-83.0,-74.0,-56.0,-53.0,-47.0,-50.0,-58.0,-60.0,-60.0,-53.0,-76.0,-100.0,-37.0,-50.0,-66.0,-100.0,-78.0,-73.0,-83.0,-76.0,-74.0,-56.0,-54.0,-49.0,-50.0,-58.0,-60.0,-100.0,-81.0,-80.0,-100.0,-100.0,-63.0,-77.0,-69.0,-78.0,-38.0,-100.0,-56.0,-76.0,-92.0,-100.0,-100.0,-100.0,-86.0,-75.0,-100.0,-47.0,-84.0,-100.0,-100.0,-100.0,-100.0,-93.0,-100.0,-100.0,-100.0,-100.0,-80.0,-100.0,-83.0,-100.0,-100.0,-90.0,-100.0,-87.0,-100.0,-100.0,-86.0,-86.0,-100.0,-100.0,-100.0,-100.0,-100.0,-100.0,-100.0,-80.0,-100.0,-100.0,-100.0,-100.0,-100.0,-100.0,-100.0,-100.0,-100.0,-100.0,-100.0,-100.0,-100.0,-100.0,-100.0,-100.0,-100.0,-100.0,-100.0,-100.0,-100.0,-100.0,-100.0,-100.0,-100.0,-100.0,-100.0,-100.0,-100.0,-100.0,-100.0,-100.0,-100.0,-100.0,-100.0,-100.0,-100.0,-100.0,-100.0,-100.0,-100.0,-100.0,-100.0,-100.0,-100.0,-100.0,-100.0,-100.0,-100.0,-100.0,-100.0,-100.0,-100.0,-100.0,-100.0,-100.0,-100.0,-100.0
2021.01.30 164803,23.0,24.0,7.12421040877193,33.222104807017544,-40.991051999999996,4.756541952631578,-8.085739070175439,3.150739636842105,-0.0034147689786842112,-0.00635572055508772,0.008298282837894737,0.956049360727009,-0.9859893719355265,-1.4268081658764888,1016.840163157895,-61.0,-100.0,-100.0,-77.0,-100.0,-100.0,-61.0,-67.0,-64.0,-100.0,-100.0,-81.0,-88.0,-54.0,-73.0,-100.0,-36.0,-39.0,-60.0,-67.0,-73.0,-100.0,-100.0,-75.0,-57.0,-58.0,-46.0,-52.0,-59.0,-61.0,-66.0,-54.0,-74.0,-100.0,-40.0,-59.0,-67.0,-58.0,-74.0,-100.0,-100.0,-100.0,-75.0,-57.0,-58.0,-47.0,-52.0,-58.0,-61.0,-100.0,-79.0,-84.0,-100.0,-100.0,-59.0,-77.0,-60.0,-76.0,-36.0,-65.0,-66.0,-100.0,-89.0,-100.0,-100.0,-100.0,-82.0,-71.0,-84.0,-47.0,-79.0,-100.0,-100.0,-100.0,-100.0,-91.0,-100.0,-100.0,-100.0,-100.0,-100.0,-100.0,-82.0,-73.0,-100.0,-100.0,-100.0,-100.0,-100.0,-100.0,-83.0,-82.0,-100.0,-100.0,-100.0,-100.0,-100.0,-100.0,-85.0,-100.0,-72.0,-100.0,-100.0,-100.0,-100.0,-100.0,-100.0,-100.0,-100.0,-100.0,-100.0,-100.0,-100.0,-100.0,-100.0,-100.0,-100.0,-100.0,-100.0,-100.0,-100.0,-100.0,-100.0,-100.0,-100.0,-100.0,-100.0,-100.0,-100.0,-100.0,-100.0,-100.0,-100.0,-100.0,-100.0,-100.0,-100.0,-100.0,-100.0,-100.0,-100.0,-100.0,-100.0,-100.0,-100.0,-100.0,-100.0,-100.0,-100.0,-100.0,-100.0,-100.0,-100.0,-100.0,-100.0,-100.0,-100.0,-100.0
2021.01.30 164814,24.0,24.0,6.352631478070176,32.92736795614036,-41.016315210526315,4.570964619298246,-8.220007400877192,3.120580175438597,0.00017004576157894768,-0.0052572349408771925,0.004113320028508772,0.9781477425182075,-0.971825641498231,-1.4762570063273113,1016.8574012280702,-61.0,-100.0,-69.0,-79.0,-100.0,-100.0,-62.0,-72.0,-65.0,-100.0,-100.0,-100.0,-100.0,-57.0,-100.0,-100.0,-40.0,-39.0,-59.0,-68.0,-72.0,-76.0,-86.0,-79.0,-61.0,-54.0,-43.0,-51.0,-53.0,-62.0,-71.0,-56.0,-100.0,-100.0,-39.0,-59.0,-67.0,-100.0,-72.0,-75.0,-86.0,-73.0,-80.0,-61.0,-54.0,-43.0,-51.0,-54.0,-63.0,-100.0,-78.0,-85.0,-100.0,-100.0,-67.0,-72.0,-60.0,-72.0,-40.0,-100.0,-70.0,-72.0,-89.0,-100.0,-100.0,-100.0,-79.0,-69.0,-86.0,-51.0,-80.0,-100.0,-100.0,-100.0,-80.0,-100.0,-100.0,-100.0,-100.0,-100.0,-100.0,-100.0,-100.0,-78.0,-80.0,-100.0,-100.0,-90.0,-64.0,-72.0,-81.0,-80.0,-100.0,-100.0,-64.0,-100.0,-100.0,-100.0,-100.0,-100.0,-71.0,-82.0,-100.0,-100.0,-100.0,-100.0,-100.0,-100.0,-100.0,-100.0,-100.0,-100.0,-100.0,-100.0,-100.0,-100.0,-100.0,-100.0,-100.0,-100.0,-100.0,-100.0,-100.0,-100.0,-100.0,-100.0,-100.0,-100.0,-100.0,-100.0,-100.0,-100.0,-100.0,-100.0,-100.0,-100.0,-100.0,-100.0,-100.0,-100.0,-100.0,-100.0,-100.0,-100.0,-100.0,-100.0,-100.0,-100.0,-100.0,-100.0,-100.0,-100.0,-100.0,-100.0,-100.0,-100.0,-100.0,-100.0
2021.01.30 164825,25.0,24.0,4.933333262393162,30.74256365811966,-42.603589111111106,4.797246775213675,-8.066659726495725,3.1500061683760685,-0.0005026479579487174,-0.0025524455791452994,0.004453651541794871,0.9522657002139295,-0.9899768442170233,-1.515266909558549,1016.8790719658119,-68.0,-100.0,-79.0,-86.0,-100.0,-100.0,-61.0,-67.0,-60.0,-100.0,-100.0,-100.0,-86.0,-52.0,-79.0,-100.0,-39.0,-44.0,-54.0,-72.0,-71.0,-75.0,-82.0,-74.0,-59.0,-58.0,-44.0,-46.0,-55.0,-62.0,-65.0,-53.0,-81.0,-100.0,-44.0,-54.0,-72.0,-60.0,-71.0,-76.0,-82.0,-100.0,-74.0,-61.0,-59.0,-43.0,-46.0,-56.0,-63.0,-100.0,-76.0,-100.0,-100.0,-79.0,-100.0,-75.0,-60.0,-75.0,-39.0,-71.0,-61.0,-100.0,-88.0,-100.0,-100.0,-100.0,-77.0,-69.0,-82.0,-51.0,-83.0,-100.0,-100.0,-100.0,-80.0,-100.0,-100.0,-100.0,-100.0,-100.0,-100.0,-100.0,-100.0,-100.0,-81.0,-100.0,-100.0,-100.0,-69.0,-71.0,-86.0,-86.0,-100.0,-100.0,-63.0,-100.0,-73.0,-100.0,-100.0,-100.0,-61.0,-100.0,-100.0,-100.0,-100.0,-100.0,-100.0,-100.0,-100.0,-100.0,-100.0,-100.0,-100.0,-100.0,-100.0,-100.0,-100.0,-100.0,-100.0,-100.0,-100.0,-100.0,-100.0,-100.0,-100.0,-100.0,-100.0,-100.0,-100.0,-100.0,-100.0,-100.0,-100.0,-100.0,-100.0,-100.0,-100.0,-100.0,-100.0,-100.0,-100.0,-100.0,-100.0,-100.0,-100.0,-100.0,-100.0,-100.0,-100.0,-100.0,-100.0,-100.0,-100.0,-100.0,-100.0,-100.0,-100.0,-100.0
2021.01.30 164835,26.0,24.0,5.506909010909091,28.048908700000002,-41.747453963636374,4.863991054545455,-7.971520292727273,3.2770003972727273,-0.0009195742489090911,-0.00309553178,0.005744632264181817,0.9364491527730768,-0.977972275018692,-1.5309014493768864,1016.8819903636363,-65.0,-100.0,-75.0,-86.0,-100.0,-100.0,-63.0,-67.0,-60.0,-100.0,-100.0,-100.0,-100.0,-54.0,-78.0,-100.0,-47.0,-42.0,-60.0,-70.0,-73.0,-100.0,-87.0,-77.0,-67.0,-58.0,-44.0,-51.0,-56.0,-61.0,-68.0,-59.0,-78.0,-100.0,-43.0,-61.0,-70.0,-60.0,-74.0,-100.0,-87.0,-69.0,-77.0,-68.0,-58.0,-45.0,-51.0,-58.0,-61.0,-100.0,-80.0,-85.0,-100.0,-81.0,-60.0,-70.0,-60.0,-71.0,-45.0,-75.0,-68.0,-69.0,-91.0,-100.0,-100.0,-100.0,-71.0,-65.0,-85.0,-54.0,-86.0,-100.0,-100.0,-100.0,-100.0,-92.0,-100.0,-100.0,-100.0,-100.0,-88.0,-87.0,-78.0,-100.0,-100.0,-89.0,-100.0,-88.0,-68.0,-73.0,-82.0,-81.0,-76.0,-100.0,-100.0,-100.0,-74.0,-100.0,-100.0,-79.0,-76.0,-100.0,-90.0,-84.0,-100.0,-100.0,-100.0,-100.0,-100.0,-100.0,-100.0,-100.0,-100.0,-100.0,-100.0,-100.0,-100.0,-100.0,-100.0,-100.0,-100.0,-100.0,-100.0,-100.0,-100.0,-100.0,-100.0,-100.0,-100.0,-100.0,-100.0,-100.0,-100.0,-100.0,-100.0,-100.0,-100.0,-100.0,-100.0,-100.0,-100.0,-100.0,-100.0,-100.0,-100.0,-100.0,-100.0,-100.0,-100.0,-100.0,-100.0,-100.0,-100.0,-100.0,-100.0,-100.0,-100.0,-100.0
2021.01.30 164846,27.0,24.0,8.455344657758621,27.416896267241373,-36.938275327586204,4.721736944827586,-8.006640743965516,3.4215012534482754,0.0021190494136206894,-0.007561837587327585,0.005130320229655174,0.9412546918309969,-0.9437206341274853,-1.4524189912039658,1016.8887076724138,-100.0,-100.0,-100.0,-81.0,-100.0,-100.0,-63.0,-59.0,-61.0,-100.0,-100.0,-100.0,-100.0,-49.0,-100.0,-100.0,-51.0,-44.0,-100.0,-70.0,-77.0,-75.0,-83.0,-76.0,0.0,-61.0,-42.0,-46.0,0.0,-61.0,-100.0,-50.0,-100.0,-100.0,-45.0,-100.0,-70.0,-59.0,-76.0,-73.0,-82.0,-100.0,-76.0,0.0,-61.0,-44.0,-46.0,-100.0,-61.0,-100.0,-73.0,-88.0,-100.0,-80.0,-100.0,-71.0,-59.0,-71.0,-51.0,-100.0,-100.0,-100.0,-90.0,-100.0,-72.0,-100.0,-73.0,-77.0,-84.0,-54.0,-85.0,-100.0,-100.0,-100.0,-71.0,-100.0,-100.0,-100.0,-100.0,-100.0,-100.0,-100.0,-100.0,-100.0,-72.0,-88.0,-100.0,-89.0,-100.0,-100.0,-91.0,-89.0,-71.0,-100.0,-75.0,-100.0,-74.0,-68.0,-100.0,-74.0,-100.0,-100.0,-89.0,-100.0,-89.0,-100.0,-100.0,-100.0,-100.0,-100.0,-100.0,-100.0,-100.0,-100.0,-100.0,-100.0,-100.0,-100.0,-100.0,-100.0,-100.0,-100.0,-100.0,-100.0,-100.0,-100.0,-100.0,-100.0,-100.0,-100.0,-100.0,-100.0,-100.0,-100.0,-100.0,-100.0,-100.0,-100.0,-100.0,-100.0,-100.0,-100.0,-100.0,-100.0,-100.0,-100.0,-100.0,-100.0,-100.0,-100.0,-100.0,-100.0,-100.0,-100.0,-100.0,-100.0,-100.0,-100.0
2021.01.30 164857,28.0,24.0,9.841592738053096,27.07539778761062,-34.806902185840705,4.895020700884955,-7.90307737256637,3.393513762831858,0.004516094201946903,-0.011023609662831857,0.005361747997522123,0.9249012712883738,-0.9647883614607616,-1.3713744794372964,1016.9043056637167,-100.0,-100.0,-79.0,-83.0,-100.0,-100.0,-69.0,-63.0,-58.0,-87.0,-100.0,-100.0,-100.0,-56.0,-100.0,-100.0,-47.0,-47.0,-62.0,-79.0,-76.0,-100.0,-87.0,-76.0,-60.0,-59.0,-44.0,-44.0,-60.0,-69.0,-71.0,-56.0,-100.0,-100.0,-47.0,-62.0,-78.0,-61.0,-76.0,-100.0,-87.0,-69.0,-76.0,-61.0,-60.0,-43.0,-44.0,-59.0,-69.0,-100.0,-77.0,-90.0,-100.0,-100.0,-70.0,-70.0,-62.0,-71.0,-62.0,-76.0,-69.0,-70.0,-92.0,-100.0,-100.0,-100.0,-69.0,-76.0,-89.0,-59.0,-79.0,-100.0,-100.0,-100.0,-100.0,-89.0,-100.0,-100.0,-53.0,-100.0,-100.0,-76.0,-82.0,-100.0,-100.0,-88.0,-100.0,-88.0,-100.0,-70.0,-86.0,-87.0,-100.0,-100.0,-74.0,-100.0,-73.0,-100.0,-100.0,-66.0,-100.0,-100.0,-100.0,-100.0,-88.0,-90.0,-100.0,-100.0,-100.0,-100.0,-100.0,-100.0,-100.0,-100.0,-100.0,-100.0,-100.0,-100.0,-100.0,-100.0,-100.0,-100.0,-100.0,-100.0,-100.0,-100.0,-100.0,-100.0,-100.0,-100.0,-100.0,-100.0,-100.0,-100.0,-100.0,-100.0,-100.0,-100.0,-100.0,-100.0,-100.0,-100.0,-100.0,-100.0,-100.0,-100.0,-100.0,-100.0,-100.0,-100.0,-100.0,-100.0,-100.0,-100.0,-100.0,-100.0,-100.0,-100.0
2021.01.30 164907,29.0,24.0,10.30631553508772,25.219999631578947,-36.15105213157895,5.015669675438597,-7.83872971491228,3.3596296017543863,0.003213654883859649,-0.002433322815175439,0.0038882644992105273,0.9143794377644857,-0.9807249574284804,-1.3979231997540122,1016.893119385965,-70.0,-100.0,-81.0,-82.0,-100.0,-83.0,-67.0,-61.0,-57.0,-100.0,-100.0,-100.0,-89.0,-52.0,-100.0,-100.0,-51.0,-47.0,-64.0,-72.0,-77.0,-100.0,-88.0,-77.0,-64.0,-61.0,-39.0,-38.0,-56.0,-65.0,-68.0,-52.0,-100.0,-100.0,-47.0,-64.0,-72.0,-60.0,-76.0,-73.0,-89.0,-67.0,-78.0,-61.0,-62.0,-39.0,-38.0,-56.0,-65.0,-100.0,-100.0,-100.0,-100.0,-100.0,-100.0,-66.0,-61.0,-66.0,-50.0,-100.0,-100.0,-63.0,-92.0,-100.0,-75.0,-79.0,-74.0,-80.0,-82.0,-62.0,-82.0,-100.0,-100.0,-100.0,-100.0,-88.0,-100.0,-100.0,-63.0,-91.0,-100.0,-73.0,-100.0,-86.0,-74.0,-88.0,-100.0,-91.0,-100.0,-100.0,-85.0,-86.0,-75.0,-100.0,-100.0,-100.0,-68.0,-100.0,-100.0,-69.0,-80.0,-100.0,-85.0,-100.0,-90.0,-91.0,-89.0,-90.0,-100.0,-100.0,-100.0,-100.0,-100.0,-100.0,-100.0,-100.0,-100.0,-100.0,-100.0,-100.0,-100.0,-100.0,-100.0,-100.0,-100.0,-100.0,-100.0,-100.0,-100.0,-100.0,-100.0,-100.0,-100.0,-100.0,-100.0,-100.0,-100.0,-100.0,-100.0,-100.0,-100.0,-100.0,-100.0,-100.0,-100.0,-100.0,-100.0,-100.0,-100.0,-100.0,-100.0,-100.0,-100.0,-100.0,-100.0,-100.0,-100.0,-100.0
2021.01.30 164918,30.0,24.0,11.9943587008547,23.810256102564104,-36.29640978632479,4.9032906085470085,-7.763016567521367,3.6945911367521376,0.0035854498958119646,-0.005899151862393164,-0.0006160080006837606,0.9015996914643508,-0.9252395446483905,-1.4291417425514286,1016.8644244444444,-71.0,-100.0,-79.0,-85.0,-100.0,-100.0,-69.0,-61.0,-56.0,-100.0,-100.0,-100.0,-100.0,-49.0,-100.0,-100.0,-49.0,-51.0,-61.0,-78.0,-79.0,-72.0,-89.0,-76.0,-67.0,-57.0,-36.0,-42.0,-54.0,-69.0,-67.0,-50.0,-100.0,-100.0,-51.0,-61.0,-79.0,-61.0,-78.0,-71.0,-88.0,-63.0,-76.0,-68.0,-57.0,-37.0,-42.0,-55.0,-69.0,-100.0,-100.0,-87.0,-100.0,-100.0,-100.0,-65.0,-61.0,-66.0,-49.0,-100.0,-67.0,-63.0,-89.0,-73.0,-78.0,-100.0,-71.0,-82.0,-84.0,-100.0,-80.0,-100.0,-100.0,-100.0,-68.0,-91.0,-100.0,-100.0,-63.0,-100.0,-86.0,-100.0,-100.0,-100.0,-69.0,-89.0,-100.0,-89.0,-100.0,-80.0,-85.0,-86.0,-67.0,-100.0,-100.0,-100.0,-69.0,-100.0,-100.0,-81.0,-84.0,-100.0,-100.0,-100.0,-88.0,-100.0,-100.0,-100.0,-87.0,-84.0,-100.0,-100.0,-100.0,-100.0,-100.0,-100.0,-100.0,-100.0,-100.0,-100.0,-100.0,-100.0,-100.0,-100.0,-100.0,-100.0,-100.0,-100.0,-100.0,-100.0,-100.0,-100.0,-100.0,-100.0,-100.0,-100.0,-100.0,-100.0,-100.0,-100.0,-100.0,-100.0,-100.0,-100.0,-100.0,-100.0,-100.0,-100.0,-100.0,-100.0,-100.0,-100.0,-100.0,-100.0,-100.0,-100.0,-100.0,-100.0
2021.01.30 164939,32.0,24.0,10.960754443396226,24.94132043396226,-43.09867860377359,5.059170401886793,-7.669359165094339,3.6615463990566037,0.005705746325943397,-0.006331860365000001,0.007729577560660376,0.8873961472286368,-0.9441930567318538,-1.498036928896634,1016.8317746226413,-79.0,-100.0,-100.0,-87.0,-100.0,-100.0,-68.0,-58.0,-51.0,-100.0,-100.0,-100.0,-100.0,-43.0,-82.0,-100.0,-52.0,-56.0,-63.0,-77.0,-76.0,-79.0,-88.0,-70.0,-72.0,-61.0,-31.0,-42.0,-64.0,-64.0,-74.0,-43.0,-86.0,-100.0,-56.0,-64.0,-77.0,-64.0,-76.0,-79.0,-87.0,-68.0,-70.0,-73.0,-61.0,-32.0,-42.0,-65.0,-64.0,-100.0,-75.0,-100.0,-100.0,-100.0,-69.0,-57.0,-63.0,-57.0,-51.0,-100.0,-55.0,-68.0,-81.0,-100.0,-76.0,-75.0,-77.0,-100.0,-100.0,-62.0,-100.0,-100.0,-100.0,-100.0,-69.0,-83.0,-100.0,-100.0,-68.0,-100.0,-100.0,-77.0,-82.0,-100.0,-69.0,-87.0,-100.0,-87.0,-79.0,-100.0,-89.0,-87.0,-62.0,-100.0,-79.0,-100.0,-67.0,-100.0,-100.0,-100.0,-100.0,-100.0,-100.0,-100.0,-100.0,-100.0,-100.0,-100.0,-100.0,-100.0,-100.0,-100.0,-100.0,-100.0,-100.0,-100.0,-100.0,-100.0,-100.0,-100.0,-100.0,-100.0,-100.0,-100.0,-100.0,-100.0,-100.0,-100.0,-100.0,-100.0,-100.0,-100.0,-100.0,-100.0,-100.0,-100.0,-100.0,-100.0,-100.0,-100.0,-100.0,-100.0,-100.0,-100.0,-100.0,-100.0,-100.0,-100.0,-100.0,-100.0,-100.0,-100.0,-100.0,-100.0,-100.0,-100.0,-100.0,-100.0
2021.01.30 164949,33.0,24.0,9.261428384821428,24.163392517857144,-47.868749321428574,5.2020109366071425,-7.557165021428572,3.696888575,-0.001330421020446428,0.0006257877265178562,0.002940006987053572,0.8694953923778874,-0.9529471642204693,-1.5671108226690973,1016.8260601785714,-86.0,-100.0,-79.0,-85.0,-100.0,-100.0,-74.0,-56.0,-48.0,-100.0,-100.0,-100.0,-100.0,-41.0,-100.0,-100.0,-50.0,-52.0,-70.0,-83.0,-74.0,-79.0,-86.0,-73.0,-72.0,-67.0,-31.0,-39.0,-64.0,-59.0,-69.0,-44.0,-100.0,-100.0,-53.0,-70.0,-82.0,-60.0,-75.0,-79.0,-87.0,-71.0,-73.0,-71.0,-67.0,-30.0,-39.0,-65.0,-60.0,-100.0,-69.0,-100.0,-100.0,-75.0,-100.0,-57.0,-59.0,-57.0,-48.0,-88.0,-67.0,-71.0,-88.0,-80.0,-73.0,-73.0,-100.0,-100.0,-100.0,-62.0,-100.0,-76.0,-83.0,-100.0,-65.0,-100.0,-100.0,-90.0,-100.0,-100.0,-100.0,-71.0,-100.0,-91.0,-66.0,-88.0,-86.0,-87.0,-100.0,-100.0,-100.0,-100.0,-68.0,-100.0,-100.0,-100.0,-63.0,-78.0,-87.0,-100.0,-100.0,-100.0,-84.0,-92.0,-100.0,-85.0,-85.0,-100.0,-100.0,-100.0,-85.0,-81.0,-100.0,-100.0,-100.0,-100.0,-100.0,-100.0,-100.0,-100.0,-100.0,-100.0,-100.0,-100.0,-100.0,-100.0,-100.0,-100.0,-100.0,-100.0,-100.0,-100.0,-100.0,-100.0,-100.0,-100.0,-100.0,-100.0,-100.0,-100.0,-100.0,-100.0,-100.0,-100.0,-100.0,-100.0,-100.0,-100.0,-100.0,-100.0,-100.0,-100.0,-100.0,-100.0,-100.0,-100.0,-100.0,-100.0
2021.01.30 164959,34.0,24.0,5.304615317094018,20.091794649572645,-50.252306905982906,5.194368956410257,-7.605649247863248,3.595934741025642,0.0011367678023931629,-0.005768625078376067,0.0035034165746153853,0.8776167733037573,-0.9651942864442483,-1.7015603312060363,1016.8390925641025,-100.0,-100.0,-79.0,-100.0,-100.0,-100.0,-76.0,-52.0,-49.0,-100.0,-100.0,-100.0,-100.0,-46.0,-100.0,-100.0,-61.0,-62.0,-68.0,-84.0,-72.0,-100.0,-87.0,-71.0,-74.0,-63.0,-43.0,-35.0,-67.0,-58.0,-71.0,-46.0,-100.0,-100.0,-62.0,-69.0,-84.0,-59.0,-71.0,-100.0,-87.0,-71.0,-71.0,-74.0,-63.0,-44.0,-35.0,-66.0,-58.0,-100.0,-76.0,-100.0,-100.0,-72.0,-77.0,-61.0,-55.0,-61.0,-60.0,-86.0,-71.0,-71.0,-89.0,-82.0,-72.0,-73.0,-80.0,-100.0,-100.0,-66.0,-100.0,-100.0,-81.0,-100.0,-68.0,-86.0,-89.0,-90.0,-70.0,-93.0,-92.0,-72.0,-78.0,-100.0,-66.0,-85.0,-86.0,-86.0,-100.0,-88.0,-100.0,-100.0,-59.0,-91.0,-100.0,-100.0,-64.0,-73.0,-100.0,-84.0,-86.0,-100.0,-85.0,-91.0,-100.0,-86.0,-86.0,-100.0,-90.0,-100.0,-85.0,-100.0,-95.0,-100.0,-100.0,-100.0,-100.0,-100.0,-100.0,-100.0,-100.0,-100.0,-100.0,-100.0,-100.0,-100.0,-100.0,-100.0,-100.0,-100.0,-100.0,-100.0,-100.0,-100.0,-100.0,-100.0,-100.0,-100.0,-100.0,-100.0,-100.0,-100.0,-100.0,-100.0,-100.0,-100.0,-100.0,-100.0,-100.0,-100.0,-100.0,-100.0,-100.0,-100.0,-100.0,-100.0,-100.0,-100.0
2021.01.30 165010,35.0,24.0,3.224736787192983,17.78789457017544,-49.567894114035084,5.141999192982456,-7.639227794736842,3.6052528140350875,0.0006255152177192982,-0.0003381621830701756,0.0023450258036842105,0.8827064591541625,-0.9593613027480611,-1.772041566539229,1016.8554788596491,-100.0,-100.0,-84.0,-86.0,-100.0,-100.0,-79.0,-53.0,-48.0,-100.0,-100.0,-88.0,-100.0,-45.0,-86.0,-100.0,-60.0,-56.0,-64.0,-81.0,-71.0,-77.0,-100.0,-68.0,-74.0,-58.0,-42.0,-38.0,-61.0,-55.0,-77.0,-45.0,-88.0,-100.0,-56.0,-65.0,-81.0,-60.0,-72.0,-78.0,-100.0,-67.0,-68.0,-73.0,-58.0,-42.0,-38.0,-62.0,-55.0,-100.0,-67.0,-100.0,-100.0,-74.0,-74.0,-62.0,-60.0,-62.0,-59.0,-100.0,-70.0,-66.0,-86.0,-83.0,-71.0,-72.0,-81.0,-100.0,-84.0,-68.0,-82.0,-100.0,-70.0,-100.0,-69.0,-100.0,-100.0,-100.0,-69.0,-100.0,-100.0,-72.0,-78.0,-95.0,-69.0,-86.0,-85.0,-86.0,-100.0,-87.0,-100.0,-100.0,-61.0,-100.0,-80.0,-100.0,-70.0,-70.0,-85.0,-82.0,-100.0,-100.0,-87.0,-88.0,-100.0,-83.0,-83.0,-100.0,-100.0,-100.0,-80.0,-100.0,-100.0,-85.0,-100.0,-100.0,-100.0,-100.0,-100.0,-100.0,-100.0,-100.0,-100.0,-100.0,-100.0,-100.0,-100.0,-100.0,-100.0,-100.0,-100.0,-100.0,-100.0,-100.0,-100.0,-100.0,-100.0,-100.0,-100.0,-100.0,-100.0,-100.0,-100.0,-100.0,-100.0,-100.0,-100.0,-100.0,-100.0,-100.0,-100.0,-100.0,-100.0,-100.0,-100.0,-100.0,-100.0,-100.0
2021.01.30 165020,36.0,24.0,0.2846153746153845,17.24769223076923,-46.72512736752137,5.029511869230769,-7.839633346153845,3.3158864427350427,0.003679429248376068,-0.0034661327559829063,0.004709483864615385,0.9155869341304159,-0.988066356915694,-1.8136864707001255,1016.8631897435895,-85.0,-100.0,-100.0,-100.0,-100.0,-100.0,-100.0,-53.0,-51.0,-100.0,-100.0,-92.0,-100.0,-50.0,-100.0,-100.0,-62.0,-56.0,-66.0,-84.0,-73.0,-82.0,-100.0,-69.0,-72.0,-56.0,-43.0,-41.0,-61.0,-56.0,-73.0,-49.0,-100.0,-100.0,-56.0,-64.0,-84.0,-59.0,-73.0,-82.0,-100.0,-60.0,-69.0,-73.0,-57.0,-42.0,-41.0,-61.0,-56.0,-100.0,-66.0,-100.0,-100.0,-80.0,-100.0,-63.0,-59.0,-63.0,-66.0,-100.0,-78.0,-60.0,-100.0,-100.0,-77.0,-100.0,-80.0,-100.0,-81.0,-64.0,-75.0,-100.0,-82.0,-100.0,-71.0,-86.0,-84.0,-85.0,-71.0,-100.0,-100.0,-63.0,-100.0,-100.0,-71.0,-87.0,-88.0,-87.0,-100.0,-100.0,-100.0,-100.0,-67.0,-100.0,-84.0,-100.0,-72.0,-69.0,-100.0,-86.0,-100.0,-100.0,-83.0,-100.0,-100.0,-87.0,-86.0,-100.0,-100.0,-82.0,-79.0,-100.0,-100.0,-86.0,-86.0,-100.0,-100.0,-100.0,-100.0,-100.0,-100.0,-100.0,-100.0,-100.0,-100.0,-100.0,-100.0,-100.0,-100.0,-100.0,-100.0,-100.0,-100.0,-100.0,-100.0,-100.0,-100.0,-100.0,-100.0,-100.0,-100.0,-100.0,-100.0,-100.0,-100.0,-100.0,-100.0,-100.0,-100.0,-100.0,-100.0,-100.0,-100.0,-100.0,-100.0,-100.0,-100.0,-100.0
2021.01.30 165031,37.0,24.0,-7.588965390517242,13.915344573275863,-33.854999474137934,5.32653905,-7.58993368362069,3.4115113698275867,0.002471876786465518,-0.0014057904801724136,-0.0010520576367241384,0.8759449437774461,-1.001142669854493,-1.9628859511737167,1016.7932754310343,-100.0,-100.0,-100.0,-90.0,-100.0,-100.0,-78.0,-58.0,-60.0,-100.0,-100.0,-100.0,-100.0,-45.0,-100.0,-100.0,-57.0,-62.0,-100.0,-85.0,-70.0,-100.0,-100.0,-66.0,-69.0,-67.0,-44.0,-38.0,-56.0,-59.0,-100.0,-43.0,-100.0,-100.0,-62.0,-100.0,-85.0,-56.0,-69.0,-100.0,-100.0,-65.0,-66.0,-68.0,-67.0,-44.0,-38.0,-54.0,-59.0,-100.0,-59.0,-100.0,-100.0,-100.0,-100.0,-61.0,-55.0,-62.0,-100.0,-100.0,-100.0,-66.0,-86.0,-100.0,-100.0,-64.0,-84.0,-100.0,-100.0,-69.0,-77.0,-71.0,-82.0,-100.0,-69.0,-83.0,-89.0,-88.0,-100.0,-100.0,-100.0,-62.0,-100.0,-100.0,-69.0,-84.0,-68.0,-86.0,-100.0,-100.0,-100.0,-100.0,-61.0,-100.0,-100.0,-100.0,-75.0,-70.0,-100.0,-100.0,-100.0,-100.0,-81.0,-80.0,-100.0,-88.0,-87.0,-100.0,-100.0,-100.0,-100.0,-83.0,-100.0,-83.0,-88.0,-91.0,-100.0,-100.0,-100.0,-100.0,-100.0,-100.0,-100.0,-100.0,-100.0,-100.0,-100.0,-100.0,-100.0,-100.0,-100.0,-100.0,-100.0,-100.0,-100.0,-100.0,-100.0,-100.0,-100.0,-100.0,-100.0,-100.0,-100.0,-100.0,-100.0,-100.0,-100.0,-100.0,-100.0,-100.0,-100.0,-100.0,-100.0,-100.0,-100.0,-100.0,-100.0,-100.0
2021.01.30 165041,38.0,24.0,-6.2383927732142865,10.942499772321428,-28.336071,5.183968379464285,-7.634914819642858,3.532260790178572,-0.001259516806428572,-0.00477382470267857,0.00791419552919643,0.882973136646407,-0.9728417433798313,-2.013566544013364,1016.8052033928572,-100.0,-100.0,-100.0,-91.0,-100.0,-100.0,-75.0,-60.0,-58.0,-100.0,-100.0,-100.0,-100.0,-54.0,-100.0,-100.0,-55.0,-62.0,-79.0,-100.0,-74.0,-84.0,-100.0,-70.0,-71.0,-59.0,-47.0,-39.0,-57.0,-56.0,-76.0,-52.0,-100.0,-100.0,-62.0,-79.0,-100.0,-67.0,-73.0,-84.0,-100.0,-61.0,-69.0,-71.0,-59.0,-45.0,-39.0,-58.0,-56.0,-100.0,-57.0,-100.0,-100.0,-75.0,-100.0,-66.0,-58.0,-66.0,-55.0,-100.0,-76.0,-60.0,-84.0,-100.0,-75.0,-100.0,-78.0,-100.0,-82.0,-100.0,-77.0,-100.0,-100.0,-100.0,-65.0,-100.0,-100.0,-100.0,-100.0,-100.0,-100.0,-62.0,-100.0,-100.0,-65.0,-85.0,-90.0,-86.0,-100.0,-100.0,-100.0,-100.0,-100.0,-100.0,-100.0,-100.0,-79.0,-100.0,-100.0,-100.0,-100.0,-100.0,-100.0,-100.0,-100.0,-84.0,-83.0,-100.0,-100.0,-100.0,-100.0,-100.0,-100.0,-86.0,-76.0,-82.0,-100.0,-100.0,-100.0,-100.0,-100.0,-100.0,-100.0,-100.0,-100.0,-100.0,-100.0,-100.0,-100.0,-100.0,-100.0,-100.0,-100.0,-100.0,-100.0,-100.0,-100.0,-100.0,-100.0,-100.0,-100.0,-100.0,-100.0,-100.0,-100.0,-100.0,-100.0,-100.0,-100.0,-100.0,-100.0,-100.0,-100.0,-100.0,-100.0,-100.0,-100.0,-100.0
2021.01.30 165051,39.0,24.0,-4.41421045,11.472104978070176,-23.478947,5.16188849385965,-7.6094884,3.6233358894736845,0.0005612139119298243,-0.0020367961618421053,0.003813245751666666,0.8786366937453287,-0.9589890079540119,-1.9102011197491695,1016.8214762280703,-100.0,-100.0,-80.0,-100.0,-100.0,-100.0,-83.0,-64.0,-65.0,-100.0,-100.0,-100.0,-100.0,-53.0,-100.0,-100.0,-60.0,-58.0,-79.0,-85.0,-73.0,-100.0,-100.0,-65.0,-67.0,-65.0,-50.0,-47.0,-62.0,-57.0,-100.0,-54.0,-100.0,-100.0,-58.0,-100.0,-86.0,-57.0,-72.0,-100.0,-100.0,-62.0,-65.0,-66.0,-65.0,-50.0,-47.0,-61.0,-57.0,-100.0,-59.0,-100.0,-100.0,-60.0,-100.0,-69.0,-57.0,-69.0,-56.0,-100.0,-100.0,-62.0,-85.0,-88.0,-71.0,-66.0,-86.0,-100.0,-100.0,-100.0,-76.0,-100.0,-84.0,-100.0,-100.0,-83.0,-100.0,-100.0,-100.0,-100.0,-100.0,-65.0,-100.0,-100.0,-100.0,-84.0,-78.0,-85.0,-100.0,-100.0,-100.0,-100.0,-100.0,-100.0,-100.0,-100.0,-84.0,-100.0,-100.0,-100.0,-100.0,-100.0,-74.0,-100.0,-100.0,-84.0,-83.0,-100.0,-100.0,-100.0,-76.0,-100.0,-100.0,-77.0,-75.0,-100.0,-88.0,-89.0,-100.0,-100.0,-100.0,-100.0,-100.0,-100.0,-100.0,-100.0,-100.0,-100.0,-100.0,-100.0,-100.0,-100.0,-100.0,-100.0,-100.0,-100.0,-100.0,-100.0,-100.0,-100.0,-100.0,-100.0,-100.0,-100.0,-100.0,-100.0,-100.0,-100.0,-100.0,-100.0,-100.0,-100.0,-100.0,-100.0,-100.0,-100.0,-100.0,-100.0
2021.01.30 165102,40.0,24.0,-0.2812499925,16.916785571428573,-19.766785455357144,5.149294150000001,-7.629335318750001,3.595367041071429,0.008116173941160714,-0.006890036451428571,0.0033763394105357143,0.8820303923317364,-0.9612086441900048,-1.4548933559230395,1016.831415,-100.0,-100.0,-100.0,-89.0,-100.0,-100.0,-75.0,-64.0,-65.0,-100.0,-100.0,-100.0,-100.0,-53.0,-100.0,-100.0,-52.0,-58.0,-71.0,-86.0,-75.0,-100.0,-100.0,-65.0,-70.0,-65.0,-55.0,-53.0,-56.0,-60.0,-80.0,-53.0,-100.0,-100.0,-58.0,-72.0,-85.0,-56.0,-75.0,-100.0,-100.0,-61.0,-65.0,-70.0,-65.0,-58.0,-53.0,-55.0,-60.0,-100.0,-57.0,-100.0,-100.0,-75.0,-100.0,-72.0,-56.0,-73.0,-50.0,-100.0,-100.0,-59.0,-88.0,-100.0,-70.0,-69.0,-81.0,-100.0,-100.0,-100.0,-72.0,-100.0,-100.0,-100.0,-100.0,-79.0,-100.0,-100.0,-71.0,-100.0,-100.0,-65.0,-100.0,-100.0,-100.0,-82.0,-88.0,-81.0,-100.0,-100.0,-100.0,-100.0,-56.0,-100.0,-100.0,-100.0,-100.0,-67.0,-100.0,-100.0,-100.0,-100.0,-100.0,-100.0,-100.0,-83.0,-83.0,-100.0,-100.0,-100.0,-100.0,-100.0,-100.0,-75.0,-82.0,-100.0,-90.0,-100.0,-100.0,-100.0,-100.0,-100.0,-100.0,-100.0,-100.0,-100.0,-100.0,-100.0,-100.0,-100.0,-100.0,-100.0,-100.0,-100.0,-100.0,-100.0,-100.0,-100.0,-100.0,-100.0,-100.0,-100.0,-100.0,-100.0,-100.0,-100.0,-100.0,-100.0,-100.0,-100.0,-100.0,-100.0,-100.0,-100.0,-100.0,-100.0,-100.0,-100.0
2021.01.30 165112,41.0,24.0,3.6796459672566364,21.891504256637166,-22.790442247787606,5.252699915044248,-7.5643404504424785,3.599866328318584,0.008251562272477876,-0.007423288487433628,-0.0009361104353097345,0.8710448377955277,-0.9699378261523964,-1.2645352751807828,1016.8564311504424,-100.0,-100.0,-84.0,-100.0,-100.0,-100.0,-80.0,-76.0,-72.0,-100.0,-100.0,-100.0,-100.0,-60.0,-100.0,-100.0,-56.0,-61.0,-75.0,-100.0,-73.0,-100.0,-100.0,-60.0,-69.0,-63.0,-56.0,-45.0,-53.0,-62.0,-79.0,-60.0,-100.0,-100.0,-61.0,-75.0,-100.0,-56.0,-73.0,-100.0,-100.0,-56.0,-60.0,-69.0,-63.0,-56.0,-45.0,-53.0,-62.0,-100.0,-60.0,-100.0,-100.0,-71.0,-100.0,-70.0,-56.0,-70.0,-56.0,-100.0,-81.0,-56.0,-83.0,-100.0,-70.0,-70.0,-87.0,-100.0,-73.0,-100.0,-71.0,-69.0,-100.0,-100.0,-100.0,-81.0,-84.0,-100.0,-100.0,-92.0,-100.0,-100.0,-73.0,-100.0,-100.0,-88.0,-100.0,-86.0,-100.0,-100.0,-100.0,-100.0,-61.0,-100.0,-100.0,-100.0,-100.0,-69.0,-100.0,-100.0,-100.0,-100.0,-77.0,-100.0,-100.0,-84.0,-83.0,-90.0,-100.0,-100.0,-100.0,-78.0,-100.0,-77.0,-87.0,-80.0,-90.0,-89.0,-77.0,-78.0,-100.0,-100.0,-100.0,-100.0,-100.0,-100.0,-100.0,-100.0,-100.0,-100.0,-100.0,-100.0,-100.0,-100.0,-100.0,-100.0,-100.0,-100.0,-100.0,-100.0,-100.0,-100.0,-100.0,-100.0,-100.0,-100.0,-100.0,-100.0,-100.0,-100.0,-100.0,-100.0,-100.0,-100.0,-100.0,-100.0,-100.0,-100.0
2021.01.30 165123,42.0,24.0,5.8694999150000005,24.288999725,-25.536999691666665,5.16241563,-7.623570549166668,3.6064362833333328,-0.002607783655833333,-0.00085846934,-0.0014131350619999996,0.8803689842422803,-0.9610252887010574,-1.2548307120800017,1016.87379825,-100.0,-100.0,-89.0,-89.0,-100.0,-100.0,-81.0,-70.0,-70.0,-100.0,-100.0,-100.0,-100.0,-100.0,-100.0,-100.0,-100.0,-65.0,-100.0,-87.0,-67.0,-100.0,-100.0,-56.0,-67.0,-70.0,-56.0,-49.0,-53.0,-61.0,-100.0,-100.0,-100.0,-100.0,-65.0,-100.0,-86.0,-59.0,-67.0,-100.0,-100.0,-58.0,-56.0,-68.0,-70.0,-55.0,-49.0,-56.0,-61.0,-100.0,-55.0,-100.0,-100.0,-70.0,-100.0,-72.0,-58.0,-71.0,-100.0,-100.0,-100.0,-56.0,-87.0,-100.0,-100.0,-100.0,-100.0,-100.0,-100.0,-100.0,-76.0,-63.0,-79.0,-100.0,-100.0,-80.0,-100.0,-100.0,-100.0,-100.0,-100.0,-69.0,-100.0,-100.0,-100.0,-84.0,-68.0,-85.0,-100.0,-100.0,-100.0,-100.0,-100.0,-100.0,-100.0,-100.0,-100.0,-67.0,-100.0,-100.0,-100.0,-100.0,-75.0,-100.0,-100.0,-83.0,-83.0,-100.0,-100.0,-100.0,-100.0,-76.0,-100.0,-73.0,-100.0,-100.0,-87.0,-89.0,-100.0,-100.0,-77.0,-100.0,-100.0,-100.0,-100.0,-100.0,-100.0,-100.0,-100.0,-100.0,-100.0,-100.0,-100.0,-100.0,-100.0,-100.0,-100.0,-100.0,-100.0,-100.0,-100.0,-100.0,-100.0,-100.0,-100.0,-100.0,-100.0,-100.0,-100.0,-100.0,-100.0,-100.0,-100.0,-100.0,-100.0,-100.0,-100.0,-100.0
2021.01.30 165134,43.0,24.0,5.694495324770641,22.949724550458708,-30.206971972477064,5.172863688073394,-7.596067487155963,3.6238996614678896,0.00044878411339449543,-0.002491086276146788,0.0003847610441284403,0.8771291457184958,-0.9598736872366809,-1.3959903334258894,1016.8650650458716,-100.0,-100.0,-82.0,-100.0,-100.0,-100.0,-100.0,-100.0,-100.0,-100.0,-100.0,-100.0,-100.0,-60.0,-100.0,-100.0,-67.0,-68.0,-100.0,-88.0,-62.0,-100.0,-100.0,-60.0,-100.0,-62.0,-59.0,-56.0,-55.0,-57.0,-83.0,-54.0,-100.0,-100.0,-68.0,-100.0,-88.0,-55.0,-62.0,-100.0,-100.0,-56.0,-59.0,-100.0,-62.0,-58.0,-56.0,-55.0,-57.0,-100.0,-49.0,-100.0,-100.0,-65.0,-100.0,-75.0,-56.0,-76.0,-68.0,-100.0,-83.0,-56.0,-82.0,-100.0,-69.0,-69.0,-100.0,-100.0,-76.0,-100.0,-73.0,-64.0,-100.0,-100.0,-100.0,-82.0,-90.0,-89.0,-100.0,-100.0,-100.0,-100.0,-100.0,-100.0,-100.0,-82.0,-78.0,-80.0,-100.0,-100.0,-100.0,-100.0,-63.0,-100.0,-100.0,-100.0,-79.0,-62.0,-100.0,-100.0,-100.0,-100.0,-73.0,-100.0,-100.0,-85.0,-85.0,-100.0,-100.0,-100.0,-78.0,-100.0,-100.0,-77.0,-100.0,-100.0,-85.0,-85.0,-100.0,-100.0,-100.0,-89.0,-100.0,-100.0,-100.0,-100.0,-100.0,-100.0,-100.0,-100.0,-100.0,-100.0,-100.0,-100.0,-100.0,-100.0,-100.0,-100.0,-100.0,-100.0,-100.0,-100.0,-100.0,-100.0,-100.0,-100.0,-100.0,-100.0,-100.0,-100.0,-100.0,-100.0,-100.0,-100.0,-100.0,-100.0,-100.0,-100.0
2021.01.30 165144,44.0,24.0,5.060172337931035,21.12465488793103,-29.90172375862069,5.246950033620689,-7.588777868103449,3.5409053931034484,0.001940002803017241,-0.003880848052586207,0.006715410521982758,0.8756023321686119,-0.9770857922989746,-1.4301116281542285,1016.8593726724138,-100.0,-100.0,-82.0,-100.0,-100.0,-100.0,-76.0,-100.0,-71.0,-100.0,-91.0,-100.0,-100.0,-67.0,-100.0,-100.0,-58.0,-65.0,-79.0,-88.0,-63.0,-100.0,-100.0,-47.0,-65.0,-66.0,-65.0,-62.0,-54.0,-56.0,-100.0,-67.0,-100.0,-100.0,-65.0,-78.0,-87.0,-55.0,-63.0,-100.0,-100.0,-45.0,-47.0,-62.0,-67.0,-64.0,-62.0,-54.0,-56.0,-100.0,-60.0,-100.0,-100.0,-63.0,-100.0,-76.0,-55.0,-76.0,-60.0,-100.0,-100.0,-46.0,-84.0,-100.0,-71.0,-70.0,-91.0,-100.0,-71.0,-100.0,-68.0,-68.0,-100.0,-100.0,-100.0,-78.0,-100.0,-100.0,-100.0,-100.0,-100.0,-68.0,-71.0,-100.0,-100.0,-83.0,-73.0,-84.0,-100.0,-100.0,-100.0,-100.0,-100.0,-100.0,-100.0,-100.0,-100.0,-58.0,-100.0,-100.0,-100.0,-100.0,-64.0,-100.0,-100.0,-89.0,-88.0,-100.0,-100.0,-100.0,-100.0,-73.0,-100.0,-78.0,-100.0,-85.0,-84.0,-85.0,-74.0,-100.0,-100.0,-100.0,-85.0,-100.0,-100.0,-100.0,-100.0,-100.0,-100.0,-100.0,-100.0,-100.0,-100.0,-100.0,-100.0,-100.0,-100.0,-100.0,-100.0,-100.0,-100.0,-100.0,-100.0,-100.0,-100.0,-100.0,-100.0,-100.0,-100.0,-100.0,-100.0,-100.0,-100.0,-100.0,-100.0,-100.0,-100.0,-100.0
2021.01.30 165155,45.0,24.0,6.549152449999999,21.49118630508475,-29.450338593220337,5.211342037288136,-7.589851155932203,3.5884903805084742,-0.0012783752846610163,-0.0021214419484745766,0.001241454228728813,0.875865862026053,-0.9678094275927139,-1.390298255419327,1016.8599853389833,-100.0,-100.0,-100.0,-89.0,-100.0,-100.0,-87.0,-74.0,-77.0,-100.0,-100.0,-100.0,-100.0,-60.0,-100.0,-100.0,-63.0,-66.0,-75.0,-89.0,-70.0,-77.0,-100.0,-48.0,-66.0,-65.0,-59.0,-55.0,-51.0,-59.0,-100.0,-57.0,-100.0,-100.0,-67.0,-75.0,-88.0,-57.0,-70.0,-77.0,-100.0,-44.0,-48.0,-66.0,-65.0,-59.0,-55.0,-54.0,-59.0,-100.0,-62.0,-100.0,-100.0,-70.0,-100.0,-75.0,-55.0,-75.0,-58.0,-100.0,-100.0,-46.0,-84.0,-100.0,-100.0,-100.0,-91.0,-100.0,-73.0,-100.0,-69.0,-100.0,-100.0,-100.0,-69.0,-76.0,-83.0,-84.0,-100.0,-100.0,-100.0,-73.0,-100.0,-100.0,-69.0,-82.0,-76.0,-82.0,-100.0,-100.0,-100.0,-100.0,-100.0,-100.0,-100.0,-100.0,-100.0,-55.0,-100.0,-100.0,-100.0,-100.0,-56.0,-100.0,-100.0,-90.0,-88.0,-100.0,-100.0,-100.0,-100.0,-100.0,-100.0,-79.0,-100.0,-84.0,-82.0,-83.0,-100.0,-100.0,-64.0,-87.0,-82.0,-100.0,-100.0,-100.0,-100.0,-100.0,-100.0,-100.0,-100.0,-100.0,-100.0,-100.0,-100.0,-100.0,-100.0,-100.0,-100.0,-100.0,-100.0,-100.0,-100.0,-100.0,-100.0,-100.0,-100.0,-100.0,-100.0,-100.0,-100.0,-100.0,-100.0,-100.0,-100.0,-100.0,-100.0,-100.0
2021.01.30 165206,46.0,24.0,6.165555432407406,22.477221990740734,-28.46499967592592,5.404432471296298,-7.479404119444444,3.539026362037037,0.001373021644907407,-0.004980678613888888,0.00312140836287037,0.858288887474272,-0.9910091641876433,-1.3254703493029982,1016.8587799074074,-100.0,-100.0,-78.0,-100.0,-100.0,-100.0,-100.0,-100.0,-73.0,-100.0,-91.0,-91.0,-100.0,-66.0,-100.0,-100.0,-63.0,-63.0,-72.0,-100.0,-67.0,-100.0,-100.0,-43.0,-64.0,-69.0,-65.0,-59.0,-53.0,-53.0,-85.0,-67.0,-100.0,-100.0,-63.0,-73.0,-89.0,-56.0,-67.0,-100.0,-100.0,-42.0,-43.0,-64.0,-69.0,-67.0,-59.0,-55.0,-53.0,-100.0,-61.0,-100.0,-100.0,-61.0,-89.0,-79.0,-57.0,-79.0,-62.0,-100.0,-73.0,-42.0,-79.0,-100.0,-62.0,-63.0,-100.0,-100.0,-72.0,-100.0,-62.0,-57.0,-100.0,-100.0,-100.0,-77.0,-83.0,-83.0,-100.0,-100.0,-100.0,-81.0,-68.0,-100.0,-100.0,-80.0,-74.0,-81.0,-100.0,-100.0,-100.0,-100.0,-100.0,-100.0,-100.0,-100.0,-100.0,-56.0,-100.0,-100.0,-100.0,-100.0,-63.0,-100.0,-100.0,-88.0,-88.0,-100.0,-100.0,-100.0,-100.0,-100.0,-100.0,-85.0,-100.0,-100.0,-79.0,-79.0,-73.0,-73.0,-100.0,-100.0,-83.0,-90.0,-100.0,-100.0,-100.0,-100.0,-100.0,-100.0,-100.0,-100.0,-100.0,-100.0,-100.0,-100.0,-100.0,-100.0,-100.0,-100.0,-100.0,-100.0,-100.0,-100.0,-100.0,-100.0,-100.0,-100.0,-100.0,-100.0,-100.0,-100.0,-100.0,-100.0,-100.0,-100.0,-100.0,-100.0
2021.01.30 165216,47.0,24.0,7.21799985,22.97127245454545,-28.750908663636363,5.562444522727273,-7.349357113636364,3.5185174318181827,0.0007964016985454544,-0.002234767201909091,-0.001796776849181819,0.8403937464410608,-1.0068021833896637,-1.279504749991677,1016.8598680000001,-100.0,-100.0,-100.0,-100.0,-100.0,-100.0,-82.0,-82.0,-100.0,-100.0,-100.0,-100.0,-100.0,-68.0,-100.0,-100.0,-66.0,-63.0,-76.0,-100.0,-74.0,-100.0,-100.0,-40.0,-67.0,-66.0,-63.0,-56.0,-47.0,-50.0,-100.0,-68.0,-100.0,-100.0,-64.0,-73.0,-100.0,-56.0,-74.0,-100.0,-100.0,-38.0,-40.0,-67.0,-67.0,-63.0,-56.0,-49.0,-50.0,-100.0,-64.0,-100.0,-100.0,-61.0,-100.0,-79.0,-56.0,-79.0,-60.0,-100.0,-87.0,-40.0,-81.0,-100.0,-69.0,-65.0,-100.0,-100.0,-69.0,-100.0,-66.0,-56.0,-100.0,-100.0,-100.0,-78.0,-100.0,-81.0,-100.0,-100.0,-100.0,-100.0,-71.0,-100.0,-100.0,-77.0,-74.0,-77.0,-100.0,-100.0,-100.0,-100.0,-85.0,-100.0,-100.0,-100.0,-100.0,-54.0,-100.0,-100.0,-100.0,-100.0,-59.0,-100.0,-100.0,-100.0,-100.0,-100.0,-100.0,-100.0,-100.0,-100.0,-100.0,-86.0,-100.0,-80.0,-80.0,-80.0,-69.0,-68.0,-100.0,-89.0,-78.0,-100.0,-100.0,-100.0,-100.0,-100.0,-100.0,-100.0,-100.0,-100.0,-100.0,-100.0,-100.0,-100.0,-100.0,-100.0,-100.0,-100.0,-100.0,-100.0,-100.0,-100.0,-100.0,-100.0,-100.0,-100.0,-100.0,-100.0,-100.0,-100.0,-100.0,-100.0,-100.0,-100.0,-100.0,-100.0
2021.01.30 165227,48.0,24.0,6.922499895535715,21.75696408035714,-28.676249607142857,5.442507300892857,-7.504191692857142,3.384136420535714,0.0024329453819642863,-0.002946683069375,0.0009765116691071425,0.8639442606696061,-1.0145444965788297,-1.3215992823243141,1016.8576313392858,-100.0,-100.0,-85.0,-100.0,-100.0,-100.0,-100.0,-100.0,-83.0,-100.0,-92.0,-100.0,-100.0,-73.0,-100.0,-100.0,-100.0,-67.0,-100.0,-90.0,-68.0,-100.0,-100.0,-37.0,-100.0,-68.0,-62.0,-100.0,0.0,-60.0,-100.0,-73.0,-100.0,-100.0,-68.0,-100.0,-89.0,-59.0,-68.0,-100.0,-100.0,-41.0,-37.0,-100.0,-68.0,-69.0,-100.0,0.0,-60.0,-100.0,-63.0,-100.0,-100.0,-58.0,-100.0,-80.0,-55.0,-79.0,-100.0,-100.0,-100.0,-40.0,-79.0,-100.0,-61.0,-60.0,-100.0,-100.0,-64.0,-100.0,-67.0,0.0,-76.0,-100.0,-100.0,-72.0,-100.0,-100.0,-100.0,-100.0,-100.0,-76.0,-100.0,-100.0,-100.0,-83.0,0.0,-82.0,-100.0,-100.0,-100.0,-100.0,-100.0,-77.0,-100.0,-100.0,-100.0,-52.0,-100.0,-100.0,-100.0,-100.0,-62.0,-100.0,-100.0,-100.0,-100.0,-100.0,-100.0,-100.0,-90.0,-100.0,-100.0,-87.0,-100.0,-100.0,-76.0,-75.0,-100.0,-100.0,-100.0,-87.0,-83.0,-92.0,-100.0,-100.0,-100.0,-100.0,-100.0,-100.0,-100.0,-100.0,-100.0,-100.0,-100.0,-100.0,-100.0,-100.0,-100.0,-100.0,-100.0,-100.0,-100.0,-100.0,-100.0,-100.0,-100.0,-100.0,-100.0,-100.0,-100.0,-100.0,-100.0,-100.0,-100.0,-100.0,-100.0,-100.0
2021.01.30 165238,49.0,24.0,6.825818035454544,18.805636154545454,-29.7801815,5.497124340909091,-7.40562256909091,3.5225659327272725,0.008604370291545455,-0.012702776152818182,0.0039786764216363625,0.8481766153465617,-1.0010099042545666,-1.4087210720235652,1016.8627365454546,-100.0,-100.0,-86.0,-100.0,-100.0,-100.0,-85.0,-79.0,-79.0,-100.0,-100.0,-100.0,-100.0,-66.0,-100.0,-100.0,-63.0,-66.0,-100.0,-100.0,-64.0,-76.0,-100.0,-43.0,-68.0,-66.0,-66.0,-62.0,-45.0,-47.0,-100.0,-66.0,-100.0,-100.0,-66.0,-100.0,-100.0,-59.0,-64.0,-77.0,-100.0,-40.0,-42.0,-68.0,-66.0,-66.0,-62.0,-44.0,-47.0,-100.0,-64.0,-100.0,-100.0,-55.0,-100.0,-86.0,-59.0,-86.0,-63.0,-100.0,-100.0,-40.0,-82.0,-100.0,-66.0,-63.0,-100.0,-100.0,-60.0,-100.0,-67.0,-56.0,-100.0,-100.0,-80.0,-73.0,-100.0,-100.0,-100.0,-100.0,-100.0,-100.0,-100.0,-100.0,-81.0,-77.0,-66.0,-77.0,-100.0,-100.0,-100.0,-100.0,-100.0,-100.0,-100.0,-100.0,-100.0,-58.0,-100.0,-100.0,-100.0,-100.0,-59.0,-100.0,-100.0,-100.0,-100.0,-100.0,-100.0,-100.0,-100.0,-100.0,-100.0,-100.0,-100.0,-78.0,-73.0,-73.0,-100.0,-100.0,-100.0,-86.0,-100.0,-100.0,-86.0,-89.0,-100.0,-100.0,-100.0,-100.0,-100.0,-100.0,-100.0,-100.0,-100.0,-100.0,-100.0,-100.0,-100.0,-100.0,-100.0,-100.0,-100.0,-100.0,-100.0,-100.0,-100.0,-100.0,-100.0,-100.0,-100.0,-100.0,-100.0,-100.0,-100.0,-100.0,-100.0,-100.0
2021.01.30 165251,50.0,24.0,8.09842088157895,18.2010524122807,-31.87894700877193,5.362944546491227,-7.487065352631579,3.5470341300877197,-0.005054459869736844,-0.0003488791176315799,0.006047726612192981,0.8592160553262945,-0.989413588193425,-1.4500047156685276,1016.8675789473684,-100.0,-100.0,-83.0,-100.0,-100.0,-100.0,-100.0,-100.0,-100.0,-100.0,-100.0,-100.0,-100.0,-76.0,-100.0,-100.0,-100.0,-68.0,-100.0,-100.0,-66.0,-100.0,-100.0,-41.0,-66.0,-68.0,-69.0,-63.0,-44.0,-48.0,-100.0,-72.0,-100.0,-100.0,-70.0,-100.0,-100.0,-59.0,-66.0,-100.0,-100.0,-42.0,-41.0,-64.0,-68.0,-76.0,-63.0,-45.0,-48.0,-100.0,-66.0,-100.0,-100.0,-65.0,-100.0,-84.0,-59.0,-84.0,-100.0,-100.0,-100.0,-41.0,-79.0,-100.0,-62.0,-57.0,-100.0,-100.0,-65.0,-100.0,-63.0,-63.0,-80.0,-100.0,-100.0,-71.0,-69.0,-78.0,-100.0,-100.0,-100.0,-76.0,-68.0,-100.0,-100.0,-76.0,-76.0,-76.0,-100.0,-100.0,-100.0,-100.0,-100.0,-73.0,-100.0,-100.0,-100.0,-58.0,-100.0,-100.0,-100.0,-100.0,-61.0,-100.0,-100.0,-100.0,-100.0,-100.0,-100.0,-100.0,-87.0,-77.0,-100.0,-100.0,-100.0,-100.0,-78.0,-78.0,-100.0,-100.0,-100.0,-81.0,-100.0,-100.0,-100.0,-100.0,-100.0,-100.0,-100.0,-100.0,-100.0,-100.0,-100.0,-100.0,-100.0,-100.0,-100.0,-100.0,-100.0,-100.0,-100.0,-100.0,-100.0,-100.0,-100.0,-100.0,-100.0,-100.0,-100.0,-100.0,-100.0,-100.0,-100.0,-100.0,-100.0,-100.0,-100.0,-100.0
2021.01.30 165301,51.0,24.0,6.053999923636365,18.403090763636364,-31.559999472727274,5.676346723636363,-7.297423125454546,3.4025257054545457,0.006871734373545454,-0.014357666007454549,0.009609743371090908,0.8338387093760751,-1.0308662116527558,-1.4325959845022722,1016.8560117272726,-100.0,-100.0,-100.0,-100.0,-100.0,-100.0,-88.0,-79.0,-77.0,-100.0,-100.0,-100.0,-100.0,-70.0,-100.0,-100.0,-64.0,-67.0,-100.0,-100.0,-70.0,-100.0,-100.0,-44.0,-65.0,-71.0,-65.0,-61.0,-43.0,-100.0,-100.0,-70.0,-100.0,-100.0,-68.0,-100.0,-100.0,-57.0,-70.0,-100.0,-100.0,-41.0,-44.0,-76.0,-71.0,-65.0,-61.0,-44.0,-100.0,-100.0,-58.0,-100.0,-100.0,-64.0,-100.0,-90.0,-55.0,-90.0,-64.0,-100.0,-100.0,-40.0,-76.0,-100.0,-54.0,-59.0,-100.0,-100.0,-64.0,-100.0,-65.0,-61.0,-83.0,-100.0,-78.0,-66.0,-69.0,-69.0,-100.0,-100.0,-100.0,-100.0,-100.0,-100.0,-100.0,-81.0,-71.0,-81.0,-100.0,-100.0,-100.0,-100.0,-100.0,-80.0,-100.0,-100.0,-100.0,-58.0,-100.0,-100.0,-100.0,-100.0,-63.0,-100.0,-100.0,-100.0,-100.0,-100.0,-100.0,-100.0,-100.0,-100.0,-100.0,-100.0,-100.0,-75.0,-78.0,-79.0,-100.0,-100.0,-100.0,-85.0,-84.0,-100.0,-100.0,-100.0,-100.0,-100.0,-100.0,-100.0,-100.0,-100.0,-100.0,-100.0,-100.0,-100.0,-100.0,-100.0,-100.0,-100.0,-100.0,-100.0,-100.0,-100.0,-100.0,-100.0,-100.0,-100.0,-100.0,-100.0,-100.0,-100.0,-100.0,-100.0,-100.0,-100.0,-100.0,-100.0
2021.01.30 165312,52.0,24.0,5.551071359821429,16.352678339285713,-30.07767824107143,5.725822689285714,-7.248303584821429,3.4462806857142856,0.004527340635267858,-0.005744664405714286,0.003365431120446428,0.8258265326065677,-1.0290598762886864,-1.459417685866356,1016.8593758928572,-100.0,-100.0,-100.0,-100.0,-100.0,-100.0,-87.0,-80.0,-100.0,-100.0,-100.0,-100.0,-100.0,-78.0,-100.0,-100.0,-68.0,-68.0,-83.0,-100.0,-69.0,-100.0,-100.0,-50.0,-100.0,-68.0,-68.0,-61.0,-44.0,-50.0,-100.0,-100.0,-100.0,-100.0,-68.0,-100.0,-100.0,-58.0,-69.0,-100.0,-100.0,-41.0,-50.0,-69.0,-68.0,-69.0,-61.0,-44.0,-50.0,-100.0,-66.0,-100.0,-100.0,-57.0,-100.0,-82.0,-59.0,-83.0,-68.0,-100.0,-100.0,-42.0,-76.0,-100.0,-100.0,-100.0,-100.0,-100.0,-60.0,-100.0,-51.0,-60.0,-100.0,-100.0,-100.0,-63.0,-74.0,-75.0,-100.0,-86.0,-100.0,-100.0,-62.0,-100.0,-100.0,-71.0,-66.0,-71.0,-100.0,-100.0,-100.0,-100.0,-100.0,-100.0,-100.0,-100.0,-100.0,-55.0,-100.0,-100.0,-100.0,-100.0,-66.0,-100.0,-100.0,-100.0,-100.0,-100.0,-100.0,-100.0,-100.0,-65.0,-100.0,-100.0,-100.0,-64.0,-81.0,-82.0,-76.0,-100.0,-71.0,-78.0,-100.0,-100.0,-100.0,-100.0,-89.0,-100.0,-100.0,-100.0,-100.0,-100.0,-100.0,-100.0,-100.0,-100.0,-100.0,-100.0,-100.0,-100.0,-100.0,-100.0,-100.0,-100.0,-100.0,-100.0,-100.0,-100.0,-100.0,-100.0,-100.0,-100.0,-100.0,-100.0,-100.0,-100.0,-100.0,-100.0
2021.01.30 165322,53.0,24.0,9.45599979304348,15.957391086956523,-31.93043428695652,5.685507414782609,-7.268227166956521,3.4825039365217396,0.002311009571304349,-0.001174083134,-0.002212792946173913,0.8284332804057909,-1.021360208677209,-1.4331349217373393,1016.8576269565217,-100.0,-100.0,-87.0,-100.0,-100.0,-100.0,-100.0,-86.0,-82.0,-100.0,-100.0,-100.0,-100.0,-100.0,-100.0,-100.0,-70.0,-64.0,-100.0,-100.0,-71.0,-100.0,-100.0,-55.0,-100.0,-67.0,-69.0,-70.0,-44.0,-42.0,-100.0,-100.0,-100.0,-100.0,-65.0,-100.0,-100.0,-59.0,-71.0,-100.0,-100.0,-53.0,-55.0,-100.0,-67.0,-68.0,-69.0,-44.0,-42.0,-100.0,-69.0,-100.0,-100.0,-49.0,-100.0,-88.0,-60.0,-86.0,-100.0,-100.0,-100.0,-53.0,-76.0,-100.0,-63.0,-61.0,-100.0,-100.0,-53.0,-100.0,-55.0,-58.0,-73.0,-100.0,-100.0,-75.0,-75.0,-73.0,-100.0,-100.0,-100.0,-77.0,-100.0,-100.0,-100.0,-73.0,-66.0,-73.0,-100.0,-100.0,-100.0,-100.0,-100.0,-100.0,-100.0,-100.0,-100.0,-50.0,-100.0,-100.0,-100.0,-100.0,-100.0,-100.0,-100.0,-100.0,-100.0,-100.0,-100.0,-100.0,-100.0,-65.0,-100.0,-100.0,-100.0,-75.0,-85.0,-85.0,-100.0,-100.0,-72.0,-100.0,-100.0,-100.0,-84.0,-100.0,-85.0,-87.0,-90.0,-89.0,-85.0,-90.0,-100.0,-100.0,-100.0,-100.0,-100.0,-100.0,-100.0,-100.0,-100.0,-100.0,-100.0,-100.0,-100.0,-100.0,-100.0,-100.0,-100.0,-100.0,-100.0,-100.0,-100.0,-100.0,-100.0,-100.0,-100.0,-100.0
2021.01.30 165333,54.0,24.0,11.202782326086956,16.395130173913046,-34.78382567826087,5.655235479130434,-7.386650085217392,3.2681851043478263,0.002836884774521738,-0.005104867863217391,-0.0022552879243478256,0.8464937039043592,-1.0468239680580471,-1.4290121969969376,1016.8629406956524,-100.0,-100.0,-88.0,-100.0,-100.0,-100.0,-84.0,-87.0,-100.0,-100.0,-100.0,-89.0,-100.0,-78.0,-100.0,-100.0,-66.0,-68.0,-100.0,-87.0,-63.0,-100.0,-100.0,-59.0,-100.0,-69.0,-67.0,-66.0,-45.0,-40.0,-100.0,-100.0,-100.0,-100.0,-67.0,-100.0,-88.0,-60.0,-63.0,-100.0,-100.0,-60.0,-59.0,-72.0,-69.0,-67.0,-66.0,-44.0,-40.0,-100.0,-100.0,-100.0,-100.0,-55.0,-100.0,-89.0,-61.0,-89.0,-66.0,-100.0,-100.0,-60.0,-79.0,-100.0,-57.0,-57.0,-100.0,-100.0,-55.0,-100.0,-56.0,-58.0,-73.0,-100.0,-100.0,-73.0,-72.0,-73.0,-100.0,-88.0,-100.0,-80.0,-100.0,-100.0,-100.0,-73.0,-80.0,-73.0,-100.0,-100.0,-100.0,-100.0,-100.0,-100.0,-100.0,-100.0,-100.0,-56.0,-100.0,-100.0,-100.0,-100.0,-80.0,-100.0,-100.0,-100.0,-100.0,-86.0,-100.0,-100.0,-100.0,-60.0,-100.0,-100.0,-100.0,-69.0,-86.0,-86.0,-83.0,-84.0,-100.0,-100.0,-100.0,-100.0,-84.0,-100.0,-100.0,-87.0,-100.0,-88.0,-86.0,-88.0,-91.0,-78.0,-100.0,-100.0,-100.0,-100.0,-100.0,-100.0,-100.0,-100.0,-100.0,-100.0,-100.0,-100.0,-100.0,-100.0,-100.0,-100.0,-100.0,-100.0,-100.0,-100.0,-100.0,-100.0,-100.0,-100.0
2021.01.30 165344,55.0,24.0,8.615999748695653,13.79373884347826,-35.74278202608696,5.823667500000001,-7.0775804243478255,3.6321981643478263,0.004690728080347824,-0.00483927440826087,0.007258274276173913,0.8006383615991344,-1.0130152510560078,-1.5346030629199483,1016.8720463478261,-100.0,-100.0,-100.0,-100.0,-100.0,-100.0,-86.0,-82.0,-100.0,-100.0,-100.0,-100.0,-100.0,-100.0,-100.0,-100.0,-100.0,-65.0,-100.0,-100.0,-67.0,-100.0,-100.0,-66.0,-69.0,-70.0,-100.0,-69.0,-44.0,-43.0,-100.0,-100.0,-100.0,-100.0,-65.0,-100.0,-87.0,-59.0,-67.0,-100.0,-100.0,-62.0,-66.0,-67.0,-70.0,-100.0,-70.0,-44.0,-43.0,-100.0,-74.0,-100.0,-100.0,-61.0,-100.0,-86.0,-57.0,-87.0,-100.0,-100.0,-100.0,-62.0,-74.0,-100.0,-61.0,-61.0,-100.0,-100.0,-64.0,-100.0,-61.0,-57.0,-70.0,-100.0,-100.0,-68.0,-69.0,-69.0,-100.0,-100.0,-100.0,-100.0,-58.0,-100.0,-100.0,-67.0,-74.0,-67.0,-100.0,-100.0,-100.0,-100.0,-100.0,-67.0,-100.0,-100.0,-100.0,-53.0,-100.0,-100.0,-100.0,-100.0,-100.0,-100.0,-100.0,-100.0,-100.0,-100.0,-100.0,-100.0,-100.0,-62.0,-100.0,-100.0,-100.0,-100.0,-88.0,-89.0,-100.0,-100.0,-68.0,-79.0,-100.0,-100.0,-80.0,-88.0,-83.0,-84.0,-100.0,-100.0,-83.0,-100.0,-100.0,-82.0,-83.0,-100.0,-100.0,-100.0,-100.0,-100.0,-100.0,-100.0,-100.0,-100.0,-100.0,-100.0,-100.0,-100.0,-100.0,-100.0,-100.0,-100.0,-100.0,-100.0,-100.0,-100.0,-100.0,-100.0
2021.01.30 165355,56.0,24.0,5.517413687931035,11.553103168103448,-33.87775813793103,5.895571471551725,-7.015679279310345,3.605839777586208,0.0005392256493103451,-0.0034964239439655167,0.002760584037586207,0.7928357674130078,-1.0221784037762676,-1.605975354539937,1016.8797256034484,-100.0,-100.0,-100.0,-100.0,-100.0,-100.0,-87.0,-89.0,-100.0,-100.0,-100.0,-100.0,-100.0,-78.0,-100.0,-100.0,-83.0,-69.0,-100.0,-100.0,-63.0,-100.0,-100.0,-67.0,-65.0,-70.0,-67.0,-67.0,-40.0,-42.0,-100.0,-78.0,-100.0,-100.0,-69.0,-100.0,-100.0,-57.0,-63.0,-100.0,-100.0,-58.0,-68.0,-100.0,-70.0,-70.0,-67.0,-40.0,-42.0,-100.0,-73.0,-100.0,-100.0,-60.0,-100.0,-89.0,-57.0,-91.0,-100.0,-100.0,-100.0,-58.0,-77.0,-100.0,-51.0,-53.0,-100.0,-100.0,-62.0,-100.0,-67.0,-54.0,-100.0,-100.0,-100.0,-70.0,-69.0,-68.0,-100.0,-100.0,-100.0,-100.0,-100.0,-100.0,-100.0,-75.0,-65.0,-75.0,-100.0,-100.0,-100.0,-100.0,-100.0,-67.0,-100.0,-100.0,-100.0,-54.0,-100.0,-100.0,-100.0,-100.0,-80.0,-100.0,-100.0,-100.0,-100.0,-100.0,-100.0,-100.0,-100.0,-59.0,-100.0,-100.0,-100.0,-100.0,-100.0,-100.0,-100.0,-100.0,-63.0,-79.0,-100.0,-100.0,-100.0,-100.0,-100.0,-82.0,-100.0,-87.0,-100.0,-86.0,-100.0,-100.0,-100.0,-87.0,-100.0,-100.0,-100.0,-100.0,-100.0,-100.0,-100.0,-100.0,-100.0,-100.0,-100.0,-100.0,-100.0,-100.0,-100.0,-100.0,-100.0,-100.0,-100.0,-100.0,-100.0,-100.0
2021.01.30 165406,57.0,24.0,6.49513036,11.298782399999999,-34.47808647826086,6.056432672173914,-6.821247297391306,3.722764193913043,0.005296281623043477,-0.004536497814695652,0.004023344291217391,0.764569788393767,-1.0196317880049997,-1.5864960038143656,1016.8849720869563,-100.0,-100.0,-73.0,-100.0,-100.0,-100.0,-90.0,-86.0,-100.0,-100.0,-100.0,-100.0,-100.0,-76.0,-100.0,-100.0,-67.0,-69.0,-100.0,-100.0,-67.0,-100.0,-100.0,-69.0,-70.0,-74.0,-69.0,-72.0,-47.0,-36.0,-100.0,-100.0,-100.0,-100.0,-69.0,-100.0,-100.0,-58.0,-68.0,-100.0,-100.0,-71.0,-69.0,-70.0,-74.0,-69.0,-72.0,-46.0,-36.0,-100.0,-100.0,-100.0,-100.0,-68.0,-100.0,-87.0,-58.0,-88.0,-66.0,-100.0,-100.0,-71.0,-75.0,-100.0,-100.0,-57.0,-100.0,-100.0,-65.0,-100.0,-67.0,-54.0,-75.0,-100.0,-91.0,-68.0,-65.0,-65.0,-100.0,-100.0,-100.0,-100.0,-52.0,-100.0,-100.0,-70.0,-76.0,-70.0,-100.0,-100.0,-100.0,-100.0,-100.0,-100.0,-100.0,-100.0,-100.0,-54.0,-100.0,-100.0,-100.0,-100.0,-76.0,-100.0,-100.0,-100.0,-100.0,-100.0,-100.0,-100.0,-100.0,-60.0,-100.0,-100.0,-100.0,-69.0,-100.0,-100.0,-100.0,-100.0,-64.0,-74.0,-100.0,-100.0,-100.0,-79.0,-100.0,-82.0,-100.0,-88.0,-100.0,-89.0,-100.0,-68.0,-100.0,-84.0,-100.0,-100.0,-100.0,-100.0,-100.0,-100.0,-100.0,-100.0,-100.0,-100.0,-100.0,-100.0,-100.0,-100.0,-100.0,-100.0,-100.0,-100.0,-100.0,-100.0,-100.0,-100.0
2021.01.30 165417,58.0,24.0,4.694210466666666,13.945262793859648,-33.3463152368421,5.980457411403509,-6.860374424561404,3.7699116964912283,0.0035351629864035085,-0.00484999147254386,0.00039454385043859657,0.770339498394414,-1.0083085737730328,-1.5583064137843616,1016.873674122807,-100.0,-100.0,-100.0,-100.0,-100.0,-100.0,-100.0,-100.0,-100.0,-100.0,-100.0,-100.0,-100.0,-100.0,-100.0,-100.0,-67.0,-67.0,-100.0,-100.0,-60.0,-100.0,-100.0,-72.0,-100.0,-73.0,-100.0,-71.0,-39.0,-36.0,-100.0,-79.0,-100.0,-100.0,-67.0,-100.0,-100.0,-57.0,-60.0,-100.0,-100.0,-100.0,-72.0,-67.0,-73.0,-100.0,-72.0,-39.0,-35.0,-100.0,-100.0,-100.0,-100.0,-61.0,-100.0,-89.0,-53.0,-91.0,-67.0,-100.0,-100.0,-69.0,-75.0,-100.0,-49.0,-50.0,-100.0,-100.0,-65.0,-100.0,-64.0,-63.0,-61.0,-100.0,-100.0,-63.0,-68.0,-69.0,-100.0,-100.0,-100.0,-100.0,0.0,-100.0,-100.0,-67.0,-67.0,-67.0,-100.0,-100.0,-100.0,-100.0,-100.0,-100.0,-100.0,-100.0,-100.0,-68.0,-100.0,-100.0,-100.0,-100.0,-81.0,-100.0,-100.0,-100.0,-100.0,-100.0,-100.0,-100.0,-100.0,-54.0,-91.0,-100.0,-100.0,-68.0,-100.0,-100.0,-100.0,-100.0,-65.0,-80.0,-100.0,-100.0,-76.0,-85.0,-100.0,-83.0,-100.0,-84.0,-100.0,-84.0,-100.0,-76.0,-100.0,-87.0,-89.0,-92.0,-100.0,-100.0,-100.0,-100.0,-100.0,-100.0,-100.0,-100.0,-100.0,-100.0,-100.0,-100.0,-100.0,-100.0,-100.0,-100.0,-100.0,-100.0,-100.0,-100.0
2021.01.30 165427,59.0,24.0,0.8366128946774193,14.471128705645162,-29.968548000000002,6.0637326580645174,-6.752839713709678,3.846653493548387,0.0054044037764516125,-0.006228500323709678,0.003510406058629032,0.7546652334351693,-1.0055473134402306,-1.5701431295564097,1016.8766931451613,-100.0,-100.0,-100.0,-100.0,-100.0,-100.0,-100.0,-100.0,-100.0,-100.0,-100.0,-100.0,-100.0,-78.0,-100.0,-100.0,-64.0,-70.0,-100.0,-100.0,-64.0,-100.0,-100.0,-72.0,-70.0,-76.0,-65.0,-69.0,-39.0,-36.0,-100.0,-78.0,-100.0,-100.0,-70.0,-100.0,-100.0,-55.0,-65.0,-100.0,-100.0,-62.0,-72.0,-100.0,-76.0,-65.0,-69.0,-39.0,-36.0,-100.0,-100.0,-100.0,-100.0,-69.0,-100.0,-87.0,-55.0,-84.0,-64.0,-100.0,-100.0,-62.0,-64.0,-100.0,-53.0,-53.0,-100.0,-100.0,-66.0,-100.0,-66.0,-60.0,-67.0,-100.0,-100.0,-79.0,-65.0,-100.0,-100.0,-100.0,-100.0,-100.0,-51.0,-100.0,-100.0,-67.0,-72.0,-67.0,-100.0,-100.0,-100.0,-100.0,-100.0,-67.0,-100.0,-100.0,-100.0,-69.0,-100.0,-100.0,-100.0,-100.0,-88.0,-100.0,-100.0,-100.0,-100.0,-100.0,-100.0,-100.0,-100.0,-57.0,-100.0,-100.0,-100.0,-67.0,-100.0,-100.0,-100.0,-88.0,-59.0,-69.0,-100.0,-100.0,-76.0,-79.0,-100.0,-80.0,-100.0,-82.0,-100.0,-83.0,-100.0,-71.0,-100.0,-80.0,-100.0,-89.0,-100.0,-100.0,-100.0,-100.0,-100.0,-100.0,-100.0,-100.0,-100.0,-100.0,-100.0,-100.0,-100.0,-100.0,-100.0,-100.0,-100.0,-100.0,-100.0,-100.0
2021.01.30 165443,60.0,24.0,0.06526315570175438,14.457368105263159,-29.849999657894738,6.335776171052632,-6.302130321929824,4.126679659649122,0.007018166399999999,-0.010358495606491231,-0.0027026501634210527,0.6947572487488127,-0.9933669368426005,-1.5425368348757427,1016.8767816666664,-100.0,-100.0,-88.0,-100.0,-100.0,-100.0,-87.0,-100.0,-86.0,-100.0,-100.0,-100.0,-100.0,-82.0,-100.0,-100.0,-68.0,-71.0,-100.0,-100.0,-65.0,-83.0,-100.0,-68.0,-100.0,-75.0,-69.0,-72.0,-33.0,-42.0,-100.0,-81.0,-100.0,-100.0,-71.0,-100.0,-100.0,-58.0,-65.0,-84.0,-100.0,-72.0,-68.0,-100.0,-74.0,-68.0,-72.0,-34.0,-42.0,-100.0,-100.0,-100.0,-100.0,-71.0,-100.0,-100.0,-57.0,-100.0,-68.0,-100.0,-100.0,-72.0,-69.0,-100.0,-45.0,-46.0,-100.0,-100.0,-66.0,-100.0,-76.0,-70.0,-65.0,-100.0,-100.0,-100.0,-66.0,-67.0,-100.0,-100.0,-100.0,-100.0,-47.0,-100.0,-100.0,-64.0,-100.0,-64.0,-100.0,-100.0,-100.0,-100.0,-100.0,-65.0,-100.0,-100.0,-100.0,-60.0,-100.0,-100.0,-100.0,-100.0,-100.0,-100.0,-100.0,-100.0,-100.0,-100.0,-100.0,-100.0,-100.0,-44.0,-100.0,-100.0,-100.0,-66.0,-100.0,-100.0,-100.0,-100.0,-63.0,-60.0,-100.0,-100.0,-73.0,-77.0,-80.0,-74.0,-100.0,-81.0,-80.0,-81.0,-100.0,-72.0,-100.0,-81.0,-100.0,-100.0,-57.0,-100.0,-100.0,-100.0,-100.0,-100.0,-100.0,-100.0,-100.0,-100.0,-100.0,-100.0,-100.0,-100.0,-100.0,-100.0,-100.0,-100.0,-100.0,-100.0
2021.01.30 165454,61.0,24.0,3.733157844736842,18.163683912280703,-30.837894149122807,6.270920757017545,-6.4661381728070175,3.9766594359649123,0.00725929734885965,-0.009624385577105264,0.002205705767894737,0.7163878726331812,-1.005624348657173,-1.396577935469778,1016.8748605263161,-100.0,-100.0,-100.0,-100.0,-100.0,-100.0,-88.0,-100.0,-100.0,-100.0,-100.0,-100.0,-100.0,-100.0,-100.0,-100.0,-66.0,-70.0,-100.0,-100.0,-64.0,-85.0,-100.0,-80.0,-74.0,-76.0,-67.0,-73.0,-36.0,-41.0,-100.0,-100.0,-100.0,-100.0,-70.0,-100.0,-100.0,-56.0,-64.0,-100.0,-100.0,-76.0,-80.0,-100.0,-76.0,-65.0,-73.0,-37.0,-41.0,-100.0,-100.0,-100.0,-100.0,-74.0,-100.0,-92.0,-57.0,-91.0,-66.0,-100.0,-100.0,-100.0,-66.0,-100.0,-46.0,-47.0,-100.0,-100.0,-69.0,-100.0,-69.0,-61.0,-65.0,-100.0,-100.0,-68.0,-64.0,-64.0,-100.0,-100.0,-100.0,-100.0,-50.0,-100.0,-100.0,-62.0,-100.0,-61.0,-100.0,-100.0,-100.0,-100.0,-100.0,-53.0,-100.0,-100.0,-100.0,-68.0,-100.0,-100.0,-100.0,-100.0,-100.0,-100.0,-100.0,-100.0,-100.0,-100.0,-100.0,-100.0,-100.0,-48.0,-100.0,-100.0,-100.0,-69.0,-100.0,-100.0,-100.0,-100.0,-64.0,-67.0,-100.0,-100.0,-69.0,-77.0,-84.0,-72.0,-100.0,-83.0,-84.0,-83.0,-100.0,-56.0,-100.0,-78.0,-88.0,-89.0,-100.0,-89.0,-100.0,-100.0,-100.0,-100.0,-100.0,-100.0,-100.0,-100.0,-100.0,-100.0,-100.0,-100.0,-100.0,-100.0,-100.0,-100.0,-100.0,-100.0
2021.01.30 165505,62.0,24.0,6.265178454464286,17.299821178571428,-34.610356714285714,6.259061891964285,-6.560697786607143,3.7891322839285713,0.005989053554285713,-0.008815352654017857,0.006201591283392857,0.7306318655610085,-1.0263953059911728,-1.434621240411486,1016.8716974999999,-100.0,-100.0,-90.0,-100.0,-100.0,-100.0,-89.0,-100.0,-100.0,-100.0,-100.0,-100.0,-100.0,-100.0,-100.0,-100.0,-64.0,-69.0,-100.0,-100.0,-63.0,-100.0,-100.0,-78.0,-68.0,-75.0,-61.0,-72.0,-38.0,-48.0,-100.0,-100.0,-100.0,-100.0,-69.0,-100.0,-100.0,-52.0,-63.0,-100.0,-100.0,-100.0,-77.0,-66.0,-75.0,-62.0,-72.0,-38.0,-48.0,-100.0,-71.0,-100.0,-100.0,-70.0,-100.0,-100.0,-48.0,-100.0,-63.0,-100.0,-100.0,-100.0,-66.0,-100.0,-43.0,-44.0,-100.0,-100.0,-67.0,-100.0,-65.0,-62.0,-59.0,-100.0,-100.0,-71.0,-67.0,-68.0,-100.0,-100.0,-100.0,-100.0,-58.0,-100.0,-89.0,-64.0,-100.0,-64.0,-100.0,-100.0,-100.0,-100.0,-100.0,-100.0,-100.0,-100.0,-100.0,-59.0,-100.0,-100.0,-100.0,-100.0,-89.0,-100.0,-100.0,-100.0,-100.0,-100.0,-100.0,-100.0,-100.0,-52.0,-100.0,-100.0,-100.0,-65.0,-100.0,-100.0,-100.0,-100.0,-57.0,-71.0,-100.0,-100.0,-77.0,-82.0,-80.0,-77.0,-100.0,-85.0,-79.0,-85.0,-100.0,-61.0,-100.0,-78.0,-89.0,-91.0,-64.0,-100.0,-85.0,-100.0,-100.0,-100.0,-100.0,-100.0,-100.0,-100.0,-100.0,-100.0,-100.0,-100.0,-100.0,-100.0,-100.0,-100.0,-100.0,-100.0
2021.01.30 165515,63.0,24.0,6.462477747787611,18.266548477876103,-35.81734467256637,6.087581407079647,-6.914919907079646,3.4733511601769913,0.00451068851920354,-0.0056555634319469025,-0.0003198392676991148,0.7786425905945027,-1.0523577179528971,-1.440962253418644,1016.8772713274336,-100.0,-100.0,-87.0,-100.0,-100.0,-100.0,-89.0,-100.0,-100.0,-100.0,-100.0,-100.0,-100.0,-77.0,-100.0,-100.0,-66.0,-72.0,-100.0,-100.0,-65.0,-100.0,-100.0,-78.0,-100.0,-73.0,-68.0,-71.0,-38.0,-42.0,-100.0,-76.0,-100.0,-100.0,-72.0,-100.0,-100.0,-54.0,-65.0,-100.0,-100.0,-100.0,-77.0,-100.0,-73.0,-70.0,-71.0,-38.0,-42.0,-100.0,-100.0,-100.0,-100.0,-100.0,-100.0,-89.0,-54.0,-90.0,-66.0,-100.0,-100.0,-100.0,-58.0,-100.0,-45.0,-45.0,-100.0,-100.0,-74.0,-100.0,-76.0,-100.0,-58.0,-100.0,-100.0,-76.0,-68.0,-64.0,-100.0,-100.0,-100.0,-100.0,-62.0,-100.0,-100.0,-60.0,-79.0,-60.0,-100.0,-100.0,-100.0,-100.0,-100.0,-71.0,-100.0,-100.0,-100.0,-70.0,-100.0,-100.0,-100.0,-100.0,-100.0,-100.0,-100.0,-100.0,-100.0,-100.0,-100.0,-100.0,-100.0,-58.0,-100.0,-100.0,-100.0,-64.0,-100.0,-100.0,-100.0,-100.0,-63.0,-69.0,-100.0,-100.0,-75.0,-84.0,-76.0,-81.0,-100.0,-85.0,-75.0,-84.0,-66.0,-100.0,-100.0,-79.0,-87.0,-89.0,-100.0,-89.0,-100.0,-100.0,-100.0,-100.0,-100.0,-100.0,-100.0,-100.0,-100.0,-100.0,-100.0,-100.0,-100.0,-100.0,-100.0,-100.0,-100.0,-100.0
2021.01.30 165526,64.0,24.0,10.009911243362833,19.700176734513274,-38.80194629203541,6.217783386725665,-6.877967576106194,3.2861527681415925,0.005851348354336282,-0.005817739940530973,0.0007937735177876111,0.7742563554670958,-1.0846903914898898,-1.3781388386160927,1016.88049539823,-100.0,-100.0,-100.0,-100.0,-100.0,-100.0,-100.0,-100.0,-100.0,-100.0,-100.0,-100.0,-100.0,-100.0,-100.0,-100.0,-70.0,-70.0,-100.0,-88.0,-63.0,-100.0,-100.0,-81.0,-68.0,-69.0,-69.0,-74.0,-42.0,-47.0,-100.0,-100.0,-100.0,-100.0,-70.0,-100.0,-100.0,-54.0,-63.0,-100.0,-100.0,-100.0,-84.0,-100.0,-70.0,-100.0,-74.0,-41.0,-47.0,-100.0,-76.0,-100.0,-100.0,-72.0,-100.0,-82.0,-52.0,-85.0,-70.0,-100.0,-100.0,-100.0,-65.0,-100.0,-46.0,-46.0,-100.0,-100.0,-73.0,-100.0,-77.0,-61.0,-57.0,-100.0,-100.0,-84.0,-62.0,-62.0,-100.0,-100.0,-100.0,-100.0,-60.0,-100.0,-100.0,-62.0,-100.0,-62.0,-100.0,-100.0,-100.0,-100.0,-100.0,-100.0,-100.0,-100.0,-100.0,-74.0,-100.0,-100.0,-100.0,-100.0,-87.0,-100.0,-100.0,-100.0,-100.0,-100.0,-100.0,-100.0,-100.0,-54.0,-100.0,-100.0,-100.0,-100.0,-100.0,-100.0,-100.0,-100.0,-53.0,-100.0,-100.0,-100.0,-77.0,-83.0,-84.0,-79.0,-87.0,-84.0,-85.0,-83.0,-100.0,-100.0,-100.0,-100.0,-86.0,-85.0,-58.0,-89.0,-100.0,-100.0,-100.0,-100.0,-100.0,-100.0,-100.0,-100.0,-100.0,-100.0,-100.0,-100.0,-100.0,-100.0,-100.0,-100.0,-100.0,-100.0
2021.01.30 165537,65.0,24.0,12.879632701834863,22.729541091743116,-42.972109660550466,6.111419390825689,-6.961365002752293,3.322880024770642,0.0037721154776146786,-0.006301988491926606,0.006084301738165136,0.7856899450678344,-1.0727186509228628,-1.3563117718477862,1016.8866875229357,-100.0,-100.0,-100.0,-100.0,-100.0,-100.0,-100.0,-100.0,-100.0,-100.0,-91.0,-100.0,-100.0,-100.0,-100.0,-100.0,-68.0,-69.0,-100.0,-100.0,-64.0,-100.0,-100.0,-78.0,-100.0,-71.0,-65.0,-69.0,-46.0,-45.0,-100.0,-100.0,-100.0,-100.0,-69.0,-100.0,-100.0,-49.0,-64.0,-100.0,-100.0,-100.0,-77.0,-100.0,-71.0,-66.0,-69.0,-45.0,-45.0,-100.0,-100.0,-100.0,-100.0,-100.0,-100.0,-100.0,-51.0,-100.0,-68.0,-100.0,-100.0,-100.0,-66.0,-100.0,-52.0,-53.0,-100.0,-100.0,-74.0,-100.0,-75.0,-100.0,-100.0,-100.0,-100.0,-73.0,-71.0,-70.0,-100.0,-81.0,-100.0,-100.0,-63.0,-100.0,-100.0,-62.0,-100.0,-62.0,-100.0,-100.0,-100.0,-100.0,-100.0,-67.0,-100.0,-100.0,-100.0,-68.0,-100.0,-100.0,-100.0,-100.0,-86.0,-100.0,-100.0,-100.0,-100.0,-80.0,-100.0,-100.0,-100.0,-59.0,-75.0,-100.0,-100.0,-70.0,-100.0,-100.0,-100.0,-100.0,-62.0,-100.0,-100.0,-100.0,-79.0,-83.0,-100.0,-79.0,-100.0,-87.0,-100.0,-88.0,-100.0,-100.0,-100.0,-68.0,-86.0,-86.0,-60.0,-92.0,-100.0,-100.0,-100.0,-100.0,-100.0,-100.0,-100.0,-100.0,-100.0,-100.0,-100.0,-100.0,-100.0,-100.0,-100.0,-100.0,-100.0,-100.0
2021.01.30 165547,66.0,24.0,14.53999973611111,23.667777481481487,-45.124443851851844,6.131915132407409,-6.786682793518518,3.6367260851851855,0.0028096858178703692,0.002485452356111111,-0.0015222988565740739,0.7606751549023169,-1.035676721069548,-1.3597679016766724,1016.8950133333333,-100.0,-100.0,-100.0,-100.0,-100.0,-100.0,-87.0,-89.0,-100.0,-100.0,-100.0,-100.0,-100.0,-100.0,-100.0,-100.0,-69.0,-70.0,-85.0,-100.0,-61.0,-100.0,-100.0,-81.0,-70.0,-74.0,-100.0,-71.0,-54.0,-52.0,-100.0,-100.0,-100.0,-100.0,-70.0,-82.0,-100.0,-51.0,-61.0,-100.0,-100.0,-75.0,-80.0,-69.0,-74.0,-100.0,-71.0,-52.0,-53.0,-100.0,-100.0,-100.0,-100.0,-100.0,-100.0,-91.0,-51.0,-90.0,-67.0,-100.0,-100.0,-100.0,-63.0,-100.0,-47.0,-48.0,-100.0,-100.0,-78.0,-100.0,-80.0,-65.0,-54.0,-100.0,-100.0,-82.0,-74.0,-73.0,-100.0,-100.0,-100.0,-100.0,-66.0,-100.0,-100.0,-68.0,-100.0,-68.0,-100.0,-100.0,-100.0,-100.0,-100.0,-77.0,-100.0,-100.0,-100.0,-65.0,-100.0,-100.0,-100.0,-100.0,-100.0,-100.0,-100.0,-100.0,-100.0,-100.0,-100.0,-100.0,-100.0,-56.0,-100.0,-100.0,-100.0,-100.0,-100.0,-100.0,-100.0,-100.0,-58.0,-100.0,-100.0,-100.0,-100.0,-100.0,-79.0,-80.0,-100.0,-89.0,-83.0,-89.0,-77.0,-100.0,-100.0,-78.0,-86.0,-86.0,-100.0,-100.0,-100.0,-88.0,-100.0,-100.0,-100.0,-100.0,-100.0,-100.0,-100.0,-100.0,-100.0,-100.0,-100.0,-100.0,-100.0,-100.0,-100.0,-100.0
2021.01.30 165557,67.0,24.0,9.722033691525425,21.896948940677966,-49.675422966101706,6.096980241525424,-6.976247215254237,3.317348911016949,0.0011184942616949158,0.0010623049394067796,0.0008221314692372883,0.787847031476134,-1.0725971647238328,-1.4743673306400493,1016.896647881356,-100.0,-100.0,-100.0,-100.0,-100.0,-100.0,-100.0,-87.0,-100.0,-100.0,-100.0,-100.0,-100.0,-82.0,-100.0,-100.0,-74.0,-69.0,-85.0,-100.0,-59.0,-100.0,-100.0,-83.0,-73.0,-75.0,-71.0,-72.0,-44.0,-52.0,-100.0,-100.0,-100.0,-100.0,-69.0,-100.0,-100.0,-52.0,-59.0,-100.0,-100.0,-100.0,-83.0,-72.0,-76.0,-100.0,-72.0,-44.0,-52.0,-100.0,-100.0,-100.0,-100.0,-100.0,-100.0,-100.0,-52.0,-91.0,-74.0,-100.0,-100.0,-100.0,-70.0,-100.0,-51.0,-51.0,-100.0,-100.0,-80.0,-88.0,-76.0,-100.0,-55.0,-100.0,-100.0,-82.0,-72.0,-73.0,-100.0,-79.0,-100.0,-100.0,-100.0,-100.0,-100.0,-69.0,-100.0,-70.0,-100.0,-100.0,-100.0,-100.0,-100.0,-79.0,-100.0,-100.0,-100.0,-100.0,-100.0,-100.0,-100.0,-100.0,-88.0,-100.0,-100.0,-100.0,-100.0,-80.0,-100.0,-100.0,-100.0,-67.0,-100.0,-100.0,-100.0,-100.0,-100.0,-100.0,-100.0,-100.0,0.0,-81.0,-100.0,-100.0,-79.0,-86.0,-68.0,-82.0,-100.0,-86.0,-100.0,-86.0,-78.0,-100.0,0.0,-70.0,-85.0,-85.0,-65.0,-100.0,-100.0,-100.0,-90.0,-100.0,-100.0,-100.0,-100.0,-100.0,-100.0,-100.0,-100.0,-100.0,-100.0,-100.0,-100.0,-100.0,-100.0,-100.0
2021.01.30 165608,68.0,24.0,4.6309090263636365,21.47072707272728,-51.497999363636374,6.193009483636363,-6.772619876363635,3.547967002727272,-0.0012194535252727271,0.0038905452020909096,-0.004690056689636363,0.7592049728740345,-1.050571097569032,-1.5553070198405872,1016.8893958181816,-100.0,-100.0,-100.0,-100.0,-100.0,-100.0,-88.0,-91.0,-100.0,-100.0,-100.0,-100.0,-100.0,-82.0,-100.0,-100.0,-66.0,-71.0,-82.0,-100.0,-57.0,-78.0,-100.0,-83.0,-100.0,-76.0,-100.0,-69.0,-50.0,-56.0,-100.0,-82.0,-100.0,-100.0,-71.0,-83.0,-100.0,-49.0,-57.0,-78.0,-100.0,-75.0,-82.0,-76.0,-76.0,-100.0,-69.0,-51.0,-56.0,-100.0,-100.0,-100.0,-100.0,-78.0,-100.0,-100.0,-49.0,-100.0,-66.0,-100.0,-100.0,-75.0,-71.0,-100.0,-50.0,-50.0,-100.0,-100.0,-83.0,-100.0,-81.0,-72.0,-52.0,-100.0,-100.0,-84.0,-65.0,-65.0,-100.0,-77.0,-100.0,-100.0,-63.0,-100.0,-100.0,-62.0,-80.0,-62.0,-100.0,-100.0,-100.0,-100.0,-100.0,-73.0,-100.0,-100.0,-100.0,-73.0,-100.0,-100.0,-100.0,-100.0,-100.0,-100.0,-100.0,-100.0,-100.0,-76.0,-100.0,-100.0,-100.0,-66.0,-71.0,-100.0,-100.0,-78.0,-100.0,-100.0,-100.0,-100.0,-65.0,-79.0,-100.0,-100.0,-82.0,-100.0,-80.0,-100.0,-100.0,-89.0,-81.0,-89.0,-75.0,-61.0,-73.0,-76.0,-83.0,-82.0,-59.0,-100.0,-89.0,-100.0,-100.0,-85.0,-88.0,-84.0,-89.0,-100.0,-100.0,-100.0,-100.0,-100.0,-100.0,-100.0,-100.0,-100.0,-100.0,-100.0
2021.01.30 165619,69.0,24.0,1.4314285491964287,22.764106964285713,-46.51660666964286,6.2828336178571424,-6.468731964285715,3.9307792919642854,-0.0009922633400000005,-0.00030141852874999986,0.0015873768324999999,0.7175707971411092,-1.0117133030933994,-1.528007515839168,1016.8792827678571,-100.0,-100.0,-100.0,-100.0,-100.0,-100.0,-100.0,-89.0,-100.0,-100.0,-100.0,-89.0,-100.0,-82.0,-100.0,-100.0,-70.0,-73.0,-82.0,-100.0,-61.0,-100.0,-100.0,-81.0,-100.0,-74.0,-71.0,-77.0,-54.0,-52.0,-100.0,-82.0,-100.0,-100.0,-73.0,-81.0,-100.0,-46.0,-61.0,-100.0,-100.0,-76.0,-81.0,-100.0,-74.0,-72.0,-78.0,-54.0,-52.0,-100.0,-87.0,-100.0,-100.0,-76.0,-100.0,-100.0,-46.0,-100.0,-69.0,-100.0,-100.0,-76.0,-73.0,-100.0,-59.0,-56.0,-100.0,-100.0,-85.0,-100.0,-84.0,-76.0,-64.0,-100.0,-100.0,-87.0,-75.0,-65.0,-100.0,-81.0,-100.0,-100.0,-62.0,-100.0,-100.0,-72.0,-84.0,-72.0,-100.0,-100.0,-100.0,-100.0,-100.0,-78.0,-100.0,-100.0,-100.0,-73.0,-100.0,-100.0,-100.0,-100.0,-100.0,-100.0,-100.0,-100.0,-100.0,-80.0,-100.0,-100.0,-100.0,-72.0,-72.0,-100.0,-100.0,-75.0,-100.0,-100.0,-100.0,-100.0,-63.0,-80.0,-100.0,-100.0,-79.0,-100.0,-75.0,-87.0,-91.0,-100.0,-76.0,-100.0,-85.0,-73.0,-74.0,-100.0,-81.0,-81.0,-60.0,-100.0,-100.0,-100.0,-86.0,-83.0,-100.0,-81.0,-100.0,-88.0,-90.0,-100.0,-100.0,-100.0,-100.0,-100.0,-100.0,-100.0,-100.0,-100.0
2021.01.30 165630,70.0,24.0,-2.073391268521739,19.811477939130434,-41.804868852173904,6.339664928695652,-6.415303189565217,3.922092793043478,0.007516643890000001,-0.005412956374782607,0.003449662012782607,0.7105397535407025,-1.0171023094135783,-1.5845224940258524,1016.8702369565218,-100.0,-100.0,-100.0,-100.0,-100.0,-100.0,-86.0,-100.0,-100.0,-100.0,-100.0,-100.0,-100.0,-80.0,-100.0,-100.0,-67.0,-72.0,-100.0,-100.0,-54.0,-100.0,-100.0,-83.0,-70.0,-73.0,-72.0,-73.0,-43.0,-55.0,-100.0,-100.0,-100.0,-100.0,-71.0,-100.0,-100.0,-53.0,-54.0,-100.0,-100.0,-70.0,-83.0,-71.0,-73.0,-73.0,-74.0,-43.0,-55.0,-100.0,-100.0,-100.0,-100.0,-100.0,-100.0,-100.0,-53.0,-100.0,-67.0,-100.0,-100.0,-100.0,-58.0,-100.0,-58.0,-62.0,-100.0,-100.0,-82.0,-100.0,-77.0,-100.0,-58.0,-100.0,-100.0,-84.0,-74.0,-74.0,-100.0,-100.0,-100.0,-100.0,-64.0,-100.0,-100.0,-78.0,-86.0,-78.0,-100.0,-100.0,-100.0,-100.0,-100.0,-100.0,-100.0,-100.0,-100.0,-77.0,-100.0,-100.0,-100.0,-100.0,-89.0,-100.0,-100.0,-100.0,-100.0,-100.0,-100.0,-100.0,-100.0,-69.0,-68.0,-100.0,-100.0,-100.0,-100.0,-100.0,-100.0,-100.0,-56.0,-80.0,-100.0,-100.0,-83.0,-87.0,-71.0,-100.0,-100.0,-100.0,-70.0,-100.0,-100.0,-100.0,-100.0,-75.0,-83.0,-81.0,-100.0,-100.0,-100.0,-100.0,-86.0,-81.0,-100.0,-100.0,-100.0,-100.0,-100.0,-100.0,-100.0,-100.0,-100.0,-100.0,-100.0,-100.0,-100.0,-100.0
2021.01.30 165640,71.0,24.0,-0.5619642705357143,19.918928366071434,-40.39821383928571,6.268574866964285,-6.528588816964286,3.86792958125,0.002291137557857144,-0.003366652759821429,-0.0008179050228571422,0.7250233995062965,-1.017801551946572,-1.5557268932461739,1016.8758522321428,-100.0,-100.0,-100.0,-100.0,-100.0,-100.0,-87.0,-100.0,-100.0,-100.0,-100.0,-100.0,-100.0,-100.0,-100.0,-100.0,-70.0,-71.0,-100.0,-100.0,-55.0,-100.0,-100.0,-82.0,-66.0,-69.0,-66.0,-78.0,-47.0,-54.0,-100.0,-100.0,-100.0,-100.0,-71.0,-100.0,-100.0,-48.0,-55.0,-100.0,-100.0,-100.0,-81.0,-66.0,-69.0,-66.0,-77.0,-47.0,-54.0,-100.0,-77.0,-100.0,-100.0,-76.0,-100.0,-100.0,-47.0,-100.0,-70.0,-100.0,-100.0,-100.0,-69.0,-100.0,-56.0,-56.0,-100.0,-100.0,-84.0,-100.0,-80.0,-100.0,-63.0,-100.0,-100.0,-79.0,-78.0,-72.0,-100.0,-72.0,-100.0,-100.0,-100.0,-100.0,-100.0,-76.0,-100.0,-77.0,-100.0,-100.0,-100.0,-100.0,-100.0,-80.0,-100.0,-100.0,-100.0,-76.0,-100.0,-100.0,-100.0,-100.0,-92.0,-100.0,-100.0,-100.0,-100.0,-70.0,-100.0,-100.0,-100.0,-72.0,-67.0,-100.0,-100.0,-100.0,-100.0,-100.0,-100.0,-100.0,-100.0,-82.0,-100.0,-100.0,-81.0,-88.0,-77.0,-100.0,-100.0,-100.0,-75.0,-100.0,-100.0,-78.0,-67.0,-75.0,-85.0,-85.0,-100.0,-100.0,-100.0,-100.0,-86.0,-73.0,-100.0,-70.0,-100.0,-100.0,-100.0,-100.0,-100.0,-100.0,-100.0,-100.0,-100.0,-100.0,-100.0,-100.0
2021.01.30 165651,72.0,24.0,3.6182142401785717,23.945892580357143,-41.10589234821428,6.424010338392857,-6.466508689285713,3.675682126785714,-0.0005559307265178569,-0.003421194484553572,0.0004529128910714281,0.7181776533169406,-1.0511505486709731,-1.3946531798158373,1016.8761842857142,-100.0,-100.0,-100.0,-100.0,-100.0,-100.0,-89.0,-100.0,-100.0,-100.0,-100.0,-91.0,-100.0,-84.0,-100.0,-100.0,-74.0,-69.0,-88.0,-100.0,-53.0,-100.0,-100.0,-80.0,-70.0,-74.0,-69.0,-74.0,-53.0,-61.0,-100.0,-83.0,-100.0,-100.0,-70.0,-81.0,-100.0,-47.0,-53.0,-100.0,-100.0,-74.0,-81.0,-71.0,-74.0,-69.0,-75.0,-52.0,-62.0,-100.0,-86.0,-100.0,-100.0,-100.0,-100.0,-100.0,-46.0,-100.0,-74.0,-100.0,-100.0,-75.0,-72.0,-100.0,-59.0,-59.0,-100.0,-100.0,-84.0,-100.0,-82.0,-100.0,-77.0,-100.0,-100.0,-85.0,-81.0,-80.0,-100.0,-73.0,-100.0,-100.0,-71.0,-100.0,-100.0,-75.0,-91.0,-75.0,-100.0,-100.0,-100.0,-100.0,-100.0,-85.0,-100.0,-100.0,-100.0,-100.0,-100.0,-100.0,-100.0,-100.0,-100.0,-100.0,-100.0,-100.0,-100.0,-72.0,-100.0,-100.0,-100.0,-64.0,-67.0,-100.0,-100.0,-100.0,-100.0,-100.0,-100.0,-100.0,-62.0,-100.0,-100.0,-100.0,-100.0,-100.0,-71.0,-100.0,-100.0,-100.0,-71.0,-100.0,-100.0,-82.0,-74.0,-100.0,-76.0,-76.0,-77.0,-100.0,-100.0,-89.0,-88.0,-74.0,-90.0,-77.0,-89.0,-100.0,-85.0,-100.0,-100.0,-100.0,-100.0,-100.0,-100.0,-100.0,-100.0,-100.0
2021.01.30 165702,73.0,24.0,6.4055356223214295,24.838392544642854,-41.77232094642857,6.371977619642856,-6.413065088392857,3.856236107142857,0.0021875086244642857,-0.0005795802219642857,0.002067342512589286,0.7108789096985545,-1.026659622256245,-1.3611768367035049,1016.8738150892858,-100.0,-100.0,-100.0,-100.0,-100.0,-100.0,-100.0,-90.0,-83.0,-100.0,-100.0,-100.0,-100.0,-85.0,-100.0,-100.0,-72.0,-70.0,-100.0,-100.0,-52.0,-100.0,-100.0,-81.0,-74.0,-72.0,-73.0,-69.0,-52.0,-56.0,-100.0,-100.0,-100.0,-100.0,-70.0,-100.0,-100.0,-41.0,-52.0,-100.0,-100.0,-72.0,-80.0,-73.0,-73.0,-73.0,-69.0,-52.0,-56.0,-100.0,-85.0,-100.0,-100.0,-82.0,-100.0,-100.0,-43.0,-100.0,-73.0,-100.0,-100.0,-73.0,-75.0,-100.0,-60.0,-60.0,-100.0,-100.0,-84.0,-100.0,-78.0,-100.0,-70.0,-100.0,-100.0,-86.0,-73.0,-78.0,-100.0,-71.0,-100.0,-100.0,-68.0,-100.0,-100.0,-75.0,-100.0,-75.0,-100.0,-100.0,-100.0,-100.0,-100.0,-100.0,-100.0,-100.0,-100.0,-80.0,-100.0,-100.0,-100.0,-100.0,-100.0,-100.0,-100.0,-100.0,-100.0,-71.0,-100.0,-100.0,-100.0,-74.0,-65.0,-100.0,-100.0,-100.0,-100.0,-100.0,-100.0,-100.0,-67.0,-100.0,-100.0,-100.0,-100.0,-100.0,-72.0,-100.0,-100.0,-100.0,-72.0,-100.0,-100.0,-85.0,-66.0,-100.0,-76.0,-76.0,-100.0,-100.0,-100.0,-100.0,-85.0,-70.0,-100.0,-75.0,-100.0,-100.0,-100.0,-91.0,-91.0,-100.0,-100.0,-100.0,-100.0,-100.0,-100.0,-100.0
2021.01.30 165713,74.0,24.0,9.746785450892856,22.867499705357144,-44.81892804464285,6.274795694642856,-6.503855126785715,3.8957630125000002,0.0007639743170535716,-0.0024176303925892858,0.0019637134933035713,0.7219914075519357,-1.0152054253433431,-1.40963769278356,1016.8651616071429,-100.0,-100.0,-100.0,-100.0,-100.0,-100.0,-90.0,-100.0,-100.0,-100.0,-100.0,-100.0,-100.0,-100.0,-100.0,-100.0,-70.0,-69.0,-83.0,-100.0,-47.0,-100.0,-100.0,-84.0,-69.0,-71.0,-78.0,-72.0,-52.0,-60.0,-100.0,-100.0,-100.0,-100.0,-70.0,-83.0,-100.0,-42.0,-47.0,-80.0,-100.0,-100.0,-84.0,-67.0,-71.0,-77.0,-72.0,-53.0,-60.0,-100.0,-100.0,-100.0,-100.0,-100.0,-100.0,-100.0,-43.0,-100.0,-70.0,-100.0,-100.0,-80.0,-76.0,-100.0,-65.0,-100.0,-100.0,-100.0,-87.0,-100.0,-85.0,-100.0,-73.0,-100.0,-100.0,-89.0,-87.0,-84.0,-100.0,-72.0,-100.0,-100.0,-100.0,-100.0,-100.0,-81.0,-100.0,-82.0,-100.0,-100.0,-100.0,-100.0,-100.0,-100.0,-100.0,-100.0,-100.0,-81.0,-100.0,-100.0,-100.0,-100.0,-100.0,-100.0,-100.0,-100.0,-100.0,-73.0,-100.0,-100.0,-100.0,-73.0,-64.0,-100.0,-100.0,-100.0,-100.0,-100.0,-100.0,-100.0,-100.0,-83.0,-100.0,-100.0,-100.0,-100.0,-67.0,-100.0,-100.0,-100.0,-66.0,-100.0,-100.0,-100.0,-72.0,-100.0,-77.0,-78.0,-74.0,-100.0,-100.0,-100.0,-82.0,-72.0,-87.0,-74.0,-87.0,-90.0,-90.0,-91.0,-90.0,-88.0,-100.0,-100.0,-100.0,-100.0,-100.0,-100.0
2021.01.30 165723,75.0,24.0,18.491351207207206,22.215675522522528,-47.420539783783795,6.199704999099099,-6.547068975675676,3.971476385585586,0.0028107559203603607,-0.0057913436764864875,0.0023512534088288286,0.7268632011370616,-1.0011496415009369,-1.3741067315007116,1016.8618061261262,-100.0,-100.0,-100.0,-100.0,-100.0,-100.0,-100.0,-100.0,-100.0,-100.0,-100.0,-100.0,-100.0,-100.0,-100.0,-100.0,-66.0,-71.0,-100.0,-100.0,-47.0,-100.0,-100.0,-84.0,-73.0,-73.0,-71.0,-76.0,-55.0,-57.0,-100.0,-100.0,-100.0,-100.0,-71.0,-100.0,-100.0,-44.0,-47.0,-85.0,-100.0,-100.0,-85.0,-100.0,-73.0,-71.0,-76.0,-56.0,-58.0,-100.0,-100.0,-100.0,-100.0,-83.0,-100.0,-100.0,-43.0,-100.0,-63.0,-100.0,-100.0,-100.0,-76.0,-100.0,-65.0,-65.0,-100.0,-100.0,-85.0,-100.0,-91.0,-80.0,-68.0,-100.0,-100.0,-100.0,-100.0,-85.0,-100.0,-62.0,-100.0,-100.0,-78.0,-100.0,-100.0,-87.0,-100.0,-87.0,-100.0,-100.0,-100.0,-100.0,-100.0,-100.0,-100.0,-100.0,-100.0,-82.0,-100.0,-100.0,-100.0,-100.0,-100.0,-100.0,-100.0,-100.0,-100.0,-63.0,-100.0,-100.0,-100.0,-75.0,-61.0,-100.0,-100.0,-100.0,-100.0,-100.0,-100.0,-100.0,-100.0,-84.0,-100.0,-100.0,-100.0,-100.0,-69.0,-100.0,-100.0,-100.0,-67.0,-100.0,-100.0,-100.0,-73.0,-89.0,-77.0,-78.0,-100.0,-100.0,-100.0,-90.0,-84.0,-70.0,-100.0,-71.0,-100.0,-86.0,-86.0,-100.0,-100.0,-100.0,-100.0,-100.0,-100.0,-100.0,-100.0,-100.0
2021.01.30 165733,76.0,24.0,14.829272495454546,19.076727081818188,-43.29327214545454,6.089446192727274,-6.626286119090911,4.002182702727273,0.0030677096525454552,-0.0040173831176363636,0.0028680124046363627,0.7379409340294925,-0.9892295555634932,-1.426224317333915,1016.8704174545454,-100.0,-100.0,-100.0,-100.0,-100.0,-100.0,-89.0,-100.0,-100.0,-100.0,-100.0,-100.0,-100.0,-64.0,-100.0,-100.0,-69.0,-71.0,-100.0,-100.0,-46.0,-100.0,-100.0,-86.0,-68.0,-76.0,-75.0,-72.0,-53.0,-57.0,-100.0,-100.0,-100.0,-100.0,-71.0,-100.0,-100.0,-43.0,-46.0,-100.0,-100.0,-79.0,-85.0,-71.0,-76.0,-75.0,-72.0,-54.0,-57.0,-100.0,-100.0,-100.0,-100.0,-83.0,-100.0,-100.0,-43.0,-100.0,-68.0,-100.0,-100.0,-79.0,-81.0,-100.0,-72.0,-72.0,-100.0,-100.0,-100.0,-100.0,-84.0,-100.0,-72.0,-100.0,-100.0,-88.0,-85.0,-84.0,-100.0,-70.0,-100.0,-100.0,-100.0,-100.0,-100.0,-81.0,-89.0,-81.0,-100.0,-100.0,-100.0,-100.0,-100.0,-100.0,-100.0,-100.0,-100.0,-74.0,-100.0,-100.0,-100.0,-100.0,-100.0,-100.0,-100.0,-100.0,-100.0,-67.0,-100.0,-100.0,-100.0,-83.0,-63.0,-100.0,-100.0,-100.0,-100.0,-100.0,-100.0,-100.0,-100.0,-85.0,-100.0,-100.0,-100.0,-100.0,-76.0,-100.0,-100.0,-100.0,-69.0,-100.0,-100.0,-100.0,-100.0,-100.0,-66.0,-66.0,-100.0,-100.0,-100.0,-89.0,-78.0,-72.0,-86.0,-72.0,-86.0,-86.0,-86.0,-88.0,-88.0,-100.0,-100.0,-100.0,-100.0,-100.0,-100.0,-100.0
2021.01.30 165744,77.0,24.0,11.34362041810345,23.260861775862065,-40.88689600862069,6.108290426724137,-6.734929906034483,3.7801264706896553,0.0017609559912931032,-0.002564328114741379,0.0017021023058620688,0.7532191677340145,-1.0166288953402947,-1.356740344187309,1016.8740910344827,-100.0,-100.0,-100.0,-100.0,-100.0,-100.0,-100.0,-100.0,-100.0,-100.0,-100.0,-100.0,-100.0,-83.0,-100.0,-100.0,-66.0,-71.0,-84.0,-100.0,-46.0,-100.0,-100.0,-85.0,-100.0,-74.0,-71.0,-73.0,-55.0,-61.0,-100.0,-83.0,-100.0,-100.0,-71.0,-85.0,-100.0,-39.0,-47.0,-100.0,-100.0,-100.0,-85.0,-100.0,-74.0,-69.0,-73.0,-55.0,-61.0,-100.0,-100.0,-100.0,-100.0,-85.0,-100.0,-100.0,-38.0,-100.0,-66.0,-100.0,-100.0,-100.0,-84.0,-100.0,-69.0,-69.0,-100.0,-100.0,-86.0,-100.0,-85.0,-100.0,-100.0,-100.0,-100.0,-91.0,-100.0,-100.0,-100.0,-56.0,-100.0,-100.0,-74.0,-100.0,-100.0,-87.0,-100.0,-85.0,-100.0,-100.0,-100.0,-100.0,-100.0,-100.0,-100.0,-100.0,-100.0,-100.0,-100.0,-100.0,-100.0,-100.0,-100.0,-100.0,-100.0,-100.0,-100.0,-56.0,-100.0,-100.0,-100.0,-76.0,-62.0,-100.0,-100.0,-75.0,-100.0,-100.0,-100.0,-100.0,-100.0,-82.0,-100.0,-100.0,-100.0,-100.0,-67.0,-100.0,-100.0,-100.0,-68.0,-100.0,-100.0,-100.0,-74.0,-87.0,-62.0,-63.0,-75.0,-100.0,-100.0,-87.0,-77.0,-75.0,-80.0,-76.0,-100.0,-79.0,-100.0,-91.0,-89.0,-100.0,-100.0,-100.0,-100.0,-100.0,-100.0,-100.0
2021.01.30 165755,78.0,24.0,11.539821196428571,26.519463874999996,-44.877856464285706,6.117607265178571,-6.59494445,3.997092157142857,0.0009985029391071426,-0.00018688120410714293,-0.0019850938945535712,0.7341665497847966,-0.9920929249908242,-1.3527830434697015,1016.8777410714285,-100.0,-100.0,-100.0,-100.0,-100.0,-100.0,-91.0,-100.0,-100.0,-100.0,-100.0,-100.0,-100.0,-100.0,-100.0,-100.0,-73.0,-73.0,-100.0,-100.0,-47.0,-100.0,-100.0,-85.0,-71.0,-75.0,-71.0,-75.0,-57.0,-60.0,-100.0,-100.0,-100.0,-100.0,-83.0,-100.0,-100.0,-34.0,-48.0,-100.0,-100.0,-81.0,-85.0,-71.0,-75.0,-69.0,-75.0,-57.0,-60.0,-100.0,-100.0,-100.0,-100.0,-82.0,-100.0,-100.0,-34.0,-100.0,-74.0,-100.0,-100.0,-100.0,-75.0,-100.0,-69.0,-69.0,-100.0,-100.0,-100.0,-100.0,-88.0,-100.0,-82.0,-100.0,-100.0,-91.0,-83.0,-82.0,-100.0,-58.0,-100.0,-100.0,-100.0,-100.0,-100.0,-82.0,-91.0,-82.0,-100.0,-100.0,-100.0,-100.0,-100.0,-100.0,-100.0,-100.0,-100.0,-100.0,-100.0,-100.0,-100.0,-100.0,-100.0,-100.0,-100.0,-100.0,-100.0,-58.0,-100.0,-100.0,-100.0,-74.0,-60.0,-100.0,-100.0,-100.0,-100.0,-100.0,-100.0,-100.0,-100.0,-88.0,-100.0,-100.0,-100.0,-100.0,-70.0,-100.0,-100.0,-100.0,-70.0,-100.0,-100.0,-100.0,-100.0,-88.0,-61.0,-61.0,-100.0,-100.0,-100.0,-100.0,-82.0,-70.0,-74.0,-69.0,-76.0,-100.0,-100.0,-91.0,-91.0,-100.0,-100.0,-100.0,-100.0,-100.0,-100.0,-100.0
2021.01.30 165805,79.0,24.0,9.649285540178571,26.714999633928567,-45.333749482142856,6.059610249107144,-6.639922616071428,4.022958847321428,0.0018984380638392853,-0.0034757360012499998,-0.00027248955151785704,0.7398108786770276,-0.9850088411143848,-1.3809730048690523,1016.8835501785715,-100.0,-100.0,-100.0,-100.0,-100.0,-100.0,-100.0,-100.0,-100.0,-100.0,-100.0,-100.0,-100.0,-100.0,-100.0,-100.0,-100.0,-80.0,-100.0,-100.0,-39.0,-100.0,-100.0,-85.0,-70.0,-72.0,-68.0,-77.0,-57.0,-65.0,-100.0,-100.0,-100.0,-100.0,-80.0,-100.0,-100.0,-32.0,-41.0,-100.0,-100.0,-100.0,-85.0,-69.0,-72.0,-69.0,-77.0,-57.0,-65.0,-100.0,-100.0,-100.0,-100.0,-80.0,-100.0,-100.0,-32.0,-100.0,-71.0,-100.0,-100.0,-100.0,-83.0,-100.0,-70.0,-70.0,-100.0,-100.0,-88.0,-100.0,-86.0,-100.0,-100.0,-100.0,-100.0,-91.0,-88.0,-88.0,-100.0,-54.0,-100.0,-100.0,-75.0,-100.0,-100.0,-84.0,-100.0,-85.0,-100.0,-100.0,-100.0,-100.0,-100.0,-100.0,-100.0,-100.0,-100.0,-100.0,-100.0,-100.0,-100.0,-100.0,-100.0,-100.0,-100.0,-100.0,-100.0,-54.0,-100.0,-100.0,-100.0,-79.0,-72.0,-100.0,-100.0,-100.0,-100.0,-100.0,-100.0,-100.0,-100.0,-100.0,-100.0,-100.0,-100.0,-100.0,-73.0,-100.0,-100.0,-100.0,-73.0,-100.0,-100.0,-100.0,-100.0,-88.0,-61.0,-61.0,-100.0,-100.0,-100.0,-100.0,-80.0,-75.0,-82.0,-76.0,-81.0,-100.0,-100.0,-100.0,-100.0,-100.0,-92.0,-91.0,-89.0,-100.0,-100.0,-100.0
2021.01.30 165815,80.0,24.0,14.886371393805309,24.71044216814159,-45.088140955752216,5.977699069026548,-6.6800902522123895,4.12368280619469,0.0036403408434513276,0.0003341596143362836,-0.000871239900265487,0.7436708839593735,-0.9669874948737895,-1.3719001016785612,1016.8834674336284,-100.0,-100.0,-100.0,-100.0,-100.0,-100.0,-100.0,-89.0,-100.0,-100.0,-100.0,-100.0,-100.0,-84.0,-100.0,-100.0,-72.0,-72.0,-87.0,-100.0,-43.0,-100.0,-100.0,-87.0,-71.0,-75.0,-68.0,-77.0,-68.0,-63.0,-100.0,-85.0,-100.0,-100.0,-72.0,-86.0,-100.0,-31.0,-43.0,-100.0,-100.0,-81.0,-87.0,-70.0,-75.0,-67.0,-77.0,-67.0,-63.0,-100.0,-100.0,-100.0,-100.0,-100.0,-100.0,-100.0,-31.0,-100.0,-73.0,-100.0,-100.0,-82.0,-88.0,-100.0,-70.0,-71.0,-100.0,-100.0,-90.0,-100.0,-100.0,-100.0,-75.0,-100.0,-100.0,-100.0,-100.0,-84.0,-100.0,-54.0,-100.0,-100.0,-100.0,-100.0,-100.0,-85.0,-100.0,-86.0,-100.0,-100.0,-100.0,-100.0,-100.0,-100.0,-100.0,-100.0,-100.0,-100.0,-100.0,-100.0,-100.0,-100.0,-100.0,-100.0,-100.0,-100.0,-100.0,-55.0,-100.0,-100.0,-100.0,-79.0,-66.0,-100.0,-100.0,-93.0,-100.0,-100.0,-100.0,-100.0,-100.0,-100.0,-100.0,-100.0,-100.0,-100.0,-65.0,-100.0,-100.0,-100.0,-66.0,-100.0,-100.0,-100.0,-75.0,-100.0,-66.0,-66.0,-100.0,-100.0,-100.0,-100.0,-80.0,-73.0,-85.0,-74.0,-100.0,-87.0,-100.0,-91.0,-90.0,-100.0,-100.0,-100.0,-100.0,-100.0,-100.0,-100.0
2021.01.30 165825,81.0,24.0,17.971825860869565,26.018608339130434,-43.976347313043476,6.094616126956521,-6.5887944373913045,4.0676855243478265,0.001710768138434783,-0.002921688959478261,0.001776422692434783,0.7323898082194121,-0.9822538220364114,-1.2979561598404594,1016.8849844347826,-100.0,-100.0,-100.0,-100.0,-100.0,-100.0,-100.0,-100.0,-100.0,-100.0,-100.0,-100.0,-100.0,-100.0,-100.0,-100.0,-71.0,-71.0,-87.0,-100.0,-40.0,-100.0,-100.0,-87.0,-70.0,-78.0,-71.0,-79.0,-64.0,-65.0,-100.0,-100.0,-100.0,-100.0,-71.0,-88.0,-100.0,-32.0,-39.0,-100.0,-100.0,-100.0,-87.0,-70.0,-77.0,-73.0,-79.0,-64.0,-65.0,-100.0,-82.0,-100.0,-100.0,-100.0,-100.0,-100.0,-31.0,-100.0,-70.0,-100.0,-100.0,-100.0,-89.0,-100.0,-75.0,-75.0,-100.0,-100.0,-100.0,-100.0,-90.0,-100.0,-100.0,-100.0,-100.0,-100.0,-100.0,-100.0,-100.0,-63.0,-100.0,-100.0,-82.0,-100.0,-100.0,-88.0,-100.0,-86.0,-100.0,-100.0,-100.0,-100.0,-100.0,-100.0,-100.0,-100.0,-100.0,-100.0,-100.0,-100.0,-100.0,-100.0,-100.0,-100.0,-100.0,-100.0,-100.0,-64.0,-100.0,-100.0,-100.0,-81.0,-73.0,-100.0,-100.0,-100.0,-100.0,-100.0,-100.0,-100.0,-100.0,-100.0,-100.0,-100.0,-100.0,-100.0,-66.0,-100.0,-100.0,-100.0,-66.0,-100.0,-100.0,-100.0,-100.0,-88.0,-73.0,-73.0,-73.0,-100.0,-100.0,-100.0,-84.0,-78.0,-100.0,-74.0,-100.0,-100.0,-100.0,-100.0,-100.0,-84.0,-100.0,-100.0,-100.0,-100.0,-100.0,-100.0
2021.01.30 165836,82.0,24.0,20.715817918181816,21.241636163636365,-49.81199909090908,6.166106503636364,-6.50907549090909,4.09144562,0.006255315654363638,-0.0017183083700909086,0.0017462415065454535,0.7214206722649661,-0.9849671905690973,-1.3991530266675083,1016.8958779999998,-100.0,-100.0,-100.0,-100.0,-100.0,-100.0,-100.0,-100.0,-100.0,-100.0,-100.0,-100.0,-100.0,-100.0,-100.0,-100.0,-69.0,-73.0,-100.0,-100.0,-40.0,-100.0,-100.0,-86.0,-70.0,-75.0,-71.0,-77.0,-62.0,-68.0,-100.0,-100.0,-100.0,-100.0,-73.0,-100.0,-100.0,-28.0,-41.0,-85.0,-100.0,-100.0,-87.0,-71.0,-75.0,-71.0,-77.0,-62.0,-68.0,-100.0,-100.0,-100.0,-100.0,-100.0,-100.0,-100.0,-28.0,-100.0,-69.0,-100.0,-100.0,-100.0,-89.0,-100.0,-74.0,-72.0,-100.0,-100.0,-100.0,-100.0,-100.0,-100.0,-100.0,-100.0,-100.0,-100.0,-100.0,-87.0,-100.0,-68.0,-100.0,-100.0,-100.0,-100.0,-100.0,-87.0,-100.0,-87.0,-100.0,-100.0,-100.0,-100.0,-100.0,-100.0,-100.0,-100.0,-100.0,-100.0,-100.0,-100.0,-100.0,-100.0,-100.0,-100.0,-100.0,-100.0,-100.0,-68.0,-100.0,-100.0,-100.0,-79.0,-79.0,-100.0,-100.0,-100.0,-100.0,-100.0,-100.0,-100.0,-100.0,-100.0,-100.0,-100.0,-100.0,-100.0,-69.0,-100.0,-100.0,-100.0,-69.0,-100.0,-100.0,-100.0,-100.0,-100.0,-77.0,-78.0,-100.0,-100.0,-100.0,-100.0,-84.0,-79.0,-86.0,-79.0,-86.0,-89.0,-100.0,-91.0,-89.0,-100.0,-100.0,-100.0,-100.0,-91.0,-100.0,-100.0
2021.01.30 165846,83.0,24.0,14.03534455172414,16.719310112068968,-47.86086143965517,6.243649500862069,-6.533975950862069,3.9194485146551727,0.0035145606356896545,-0.0039756374825,0.004034975556810345,0.7251946910701949,-1.0103744725728858,-1.4975787205942745,1016.9082922413792,-100.0,-100.0,-100.0,-100.0,-100.0,-100.0,-100.0,-100.0,-100.0,-100.0,-100.0,-100.0,-100.0,-85.0,-100.0,-100.0,-71.0,-73.0,-84.0,-100.0,-44.0,-100.0,-100.0,-85.0,-100.0,-78.0,-69.0,-76.0,-60.0,-67.0,-100.0,-85.0,-100.0,-100.0,-73.0,-82.0,-100.0,-31.0,-44.0,-85.0,-100.0,-77.0,-84.0,-100.0,-77.0,-70.0,-76.0,-60.0,-67.0,-100.0,-100.0,-100.0,-100.0,-100.0,-100.0,-100.0,-31.0,-100.0,-71.0,-100.0,-100.0,-100.0,-89.0,-100.0,-72.0,-73.0,-100.0,-100.0,-89.0,-100.0,-100.0,-100.0,-100.0,-100.0,-100.0,-100.0,-100.0,-100.0,-100.0,-100.0,-100.0,-100.0,-100.0,-100.0,-100.0,-87.0,-100.0,-88.0,-100.0,-100.0,-100.0,-100.0,-100.0,-100.0,-100.0,-100.0,-100.0,-100.0,-100.0,-100.0,-100.0,-100.0,-100.0,-100.0,-100.0,-100.0,-100.0,-69.0,-100.0,-100.0,-100.0,-100.0,-77.0,-100.0,-100.0,-100.0,-100.0,-100.0,-100.0,-100.0,-100.0,-100.0,-100.0,-100.0,-100.0,-100.0,-62.0,-100.0,-100.0,-100.0,-70.0,-100.0,-100.0,-100.0,-82.0,-100.0,-79.0,-79.0,-100.0,-100.0,-100.0,-100.0,-85.0,-77.0,-100.0,-76.0,-88.0,-100.0,-100.0,-89.0,-89.0,-88.0,-100.0,-100.0,-100.0,-100.0,-100.0,-100.0
2021.01.30 165856,84.0,24.0,13.717698831858408,17.531681238938052,-47.20991077876106,6.103387884955753,-6.64529915840708,3.988416877876106,0.004829635768230088,-0.0019038776833628318,0.0018100802054867254,0.7390846768311695,-0.9920631921396846,-1.500643722778928,1016.9286523893805,-100.0,-100.0,-100.0,-100.0,-100.0,-100.0,-100.0,-100.0,-100.0,-100.0,-100.0,-100.0,-100.0,-100.0,-100.0,-100.0,-70.0,-75.0,-100.0,-100.0,-48.0,-100.0,-100.0,-83.0,-72.0,-74.0,-67.0,-76.0,-63.0,-67.0,-100.0,-100.0,-100.0,-100.0,-75.0,-100.0,-100.0,-36.0,-47.0,-81.0,-100.0,-79.0,-85.0,-70.0,-74.0,-67.0,-76.0,-64.0,-68.0,-100.0,-87.0,-100.0,-100.0,-88.0,-100.0,-100.0,-37.0,-100.0,-68.0,-100.0,-100.0,-79.0,-88.0,-100.0,-73.0,-74.0,-100.0,-100.0,-89.0,-100.0,-90.0,-100.0,-100.0,-100.0,-100.0,-100.0,-89.0,-89.0,-100.0,-77.0,-100.0,-100.0,-86.0,-100.0,-100.0,-90.0,-100.0,-89.0,-100.0,-100.0,-100.0,-100.0,-100.0,-100.0,-100.0,-100.0,-100.0,-100.0,-100.0,-100.0,-100.0,-100.0,-100.0,-100.0,-100.0,-100.0,-100.0,-75.0,-100.0,-100.0,-100.0,-78.0,-79.0,-100.0,-100.0,-100.0,-100.0,-100.0,-100.0,-100.0,-100.0,-100.0,-100.0,-100.0,-100.0,-100.0,-59.0,-100.0,-100.0,-100.0,-59.0,-100.0,-100.0,-100.0,-100.0,-100.0,-78.0,-78.0,-100.0,-100.0,-100.0,-100.0,-88.0,-84.0,-100.0,-84.0,-100.0,-100.0,-100.0,-88.0,-88.0,-84.0,-100.0,-100.0,-100.0,-100.0,-100.0,-100.0
2021.01.30 165909,85.0,24.0,11.77043448695652,16.84173892173913,-48.24260788695652,6.075212086956521,-6.551610301739131,4.166517055652174,0.003399943134,-0.008153882395043478,0.002047328108782608,0.726865437756414,-0.9696927889533665,-1.5513859002486519,1016.9287270434783,-100.0,-100.0,-100.0,-100.0,-100.0,-100.0,-100.0,-100.0,-100.0,-100.0,-100.0,-100.0,-100.0,-100.0,-100.0,-100.0,-77.0,-74.0,-100.0,-100.0,-44.0,-100.0,-100.0,-100.0,-70.0,-78.0,-71.0,-77.0,-64.0,-64.0,-100.0,-100.0,-100.0,-100.0,-74.0,-100.0,-100.0,-37.0,-45.0,-100.0,-100.0,-100.0,-91.0,-70.0,-78.0,-70.0,-76.0,-63.0,-64.0,-100.0,-100.0,-100.0,-100.0,-100.0,-100.0,-100.0,-37.0,-100.0,-76.0,-100.0,-100.0,-84.0,-89.0,-100.0,-78.0,-77.0,-100.0,-100.0,-100.0,-100.0,-90.0,-100.0,-100.0,-100.0,-100.0,-100.0,-88.0,-100.0,-100.0,-70.0,-100.0,-100.0,-82.0,-100.0,-100.0,-86.0,-100.0,-87.0,-100.0,-100.0,-100.0,-100.0,-100.0,-100.0,-100.0,-100.0,-100.0,-100.0,-100.0,-100.0,-100.0,-100.0,-100.0,-100.0,-100.0,-100.0,-100.0,-71.0,-100.0,-100.0,-100.0,-82.0,-80.0,-100.0,-100.0,-100.0,-100.0,-100.0,-100.0,-100.0,-100.0,-100.0,-100.0,-100.0,-100.0,-100.0,-78.0,-100.0,-89.0,-100.0,-78.0,-100.0,-100.0,-100.0,-100.0,-100.0,-76.0,-76.0,-86.0,-100.0,-100.0,-100.0,-87.0,-77.0,-100.0,-79.0,-100.0,-100.0,-100.0,-91.0,-91.0,-77.0,-100.0,-100.0,-100.0,-100.0,-78.0,-100.0
2021.01.30 165920,86.0,24.0,9.265789325438599,17.97842087719298,-48.752630947368424,6.134111076315791,-6.469330549122807,4.2146587421052635,0.005458852750701755,-0.00222970108122807,0.0015037465583333336,0.7155031337026965,-0.968919327907395,-1.560252162448147,1016.9317264912282,-100.0,-100.0,-100.0,-100.0,-100.0,-100.0,-100.0,-100.0,-100.0,-100.0,-100.0,-100.0,-100.0,-100.0,-100.0,-100.0,-78.0,-78.0,-100.0,-100.0,-54.0,-100.0,-100.0,-88.0,-79.0,-74.0,-76.0,-77.0,-65.0,-68.0,-100.0,-86.0,-100.0,-100.0,-77.0,-100.0,-100.0,-44.0,-54.0,-100.0,-100.0,-80.0,-88.0,-78.0,-74.0,-73.0,-77.0,-66.0,-68.0,-100.0,-86.0,-100.0,-100.0,-100.0,-100.0,-100.0,-45.0,-100.0,-78.0,-100.0,-100.0,-79.0,-88.0,-100.0,-77.0,-77.0,-100.0,-100.0,-89.0,-100.0,-88.0,-100.0,-100.0,-100.0,-100.0,-100.0,-100.0,-100.0,-100.0,-75.0,-100.0,-100.0,-85.0,-100.0,-100.0,-89.0,-100.0,-88.0,-100.0,-100.0,-100.0,-100.0,-100.0,-100.0,-100.0,-100.0,-100.0,-100.0,-100.0,-100.0,-100.0,-100.0,-100.0,-100.0,-100.0,-100.0,-100.0,-75.0,-100.0,-100.0,-100.0,-84.0,-80.0,-100.0,-100.0,-100.0,-100.0,-100.0,-100.0,-100.0,-100.0,-100.0,-100.0,-100.0,-100.0,-100.0,-73.0,-100.0,-100.0,-100.0,-76.0,-100.0,-100.0,-100.0,-100.0,-100.0,-85.0,-85.0,-100.0,-100.0,-100.0,-100.0,-100.0,-82.0,-100.0,-81.0,-100.0,-100.0,-100.0,-90.0,-90.0,-80.0,-100.0,-100.0,-100.0,-100.0,-100.0,-100.0
