Timestamp,True_X,True_Y,Mean_Mag_x,Mean_Mag_y,Mean_Mag_z,Mean_Acc_x,Mean_Acc_y,Mean_Acc_z,Mean_Gyro_x,Mean_Gyro_y,Mean_Gyro_z,Mean_Orn_x,Mean_Orn_y,Mean_Orn_z,Mean_Pressure,00:1a:ab:a0:de:a8,00:1a:ab:a0:de:a9,00:1a:ac:a0:de:f9,00:1a:ac:a0:de:g1,00:1a:ac:a0:de:g5,00:1a:ac:a0:de:i6,00:1a:ac:a0:de:j1,00:1a:ac:a0:de:j5,00:1a:ac:a0:de:k3,00:1a:ac:a0:de:l9,00:1a:ac:a0:de:n6,00:1a:ac:a0:de:n7,00:1a:ac:a0:de:s6,00:1a:ac:a0:de:s7,00:1a:ac:a0:de:t3,00:1a:ac:a0:de:t4,00:1a:ac:a0:de:v7,00:1a:ac:a0:de:x3,00:1a:ac:a0:de:x4,00:1a:ab:a0:de:a1,00:1a:ab:a0:de:a7,00:1a:ac:a0:de:b4,00:1a:ac:a0:de:g8,00:1a:ac:a0:de:g9,00:1a:ac:a0:de:h2,00:1a:ac:a0:de:h3,00:1a:ac:a0:de:j7,00:1a:ac:a0:de:j8,00:1a:ac:a0:de:k1,00:1a:ac:a0:de:l8,00:1a:ac:a0:de:p1,00:1a:ac:a0:de:p2,00:1a:ac:a0:de:p5,00:1a:ac:a0:de:p6,00:1a:ac:a0:de:r1,00:1a:ac:a0:de:r2,00:1a:ac:a0:de:r3,00:1a:ac:a0:de:r4,00:1a:ac:a0:de:r7,00:1a:ac:a0:de:r9,00:1a:ac:a0:de:s1,00:1a:ac:a0:de:s2,00:1a:ac:a0:de:s3,00:1a:ac:a0:de:s4,00:1a:ac:a0:de:s5,00:1a:ac:a0:de:t1,00:1a:ac:a0:de:t7,00:1a:ac:a0:de:t8,00:1a:ac:a0:de:u2,00:1a:ac:a0:de:u3,00:1a:ac:a0:de:v8,00:1a:ac:a0:de:v9,00:1a:ac:a0:de:w1,00:1a:ac:a0:de:w4,00:1a:ac:a0:de:w6,00:1a:ac:a0:de:w7,00:1a:ac:a0:de:w8,00:1a:ac:a0:de:w9,00:1a:ac:a0:de:x1,00:1a:ac:a0:de:x2,00:1a:ac:a0:de:f6,00:1a:ac:a0:de:k2,00:1a:ac:a0:de:k4,00:1a:ac:a0:de:l7,00:1a:ac:a0:de:p7,00:1a:ac:a0:de:u4,00:1a:ac:a0:de:b3,00:1a:ac:a0:de:n4,00:1a:ac:a0:de:b1,00:1a:ac:a0:de:r5,00:1a:ac:a0:de:w2,00:1a:ac:a0:de:i7,00:1a:ac:a0:de:j2,00:1a:ac:a0:de:t5,00:1a:ac:a0:de:e8,00:1a:ac:a0:de:j4,00:1a:ac:a0:de:b2,00:1a:ac:a0:de:d9,00:1a:ac:a0:de:h5,00:1a:ac:a0:de:m8,00:1a:ac:a0:de:e5,00:1a:ac:a0:de:m4,00:1a:ac:a0:de:e2,00:1a:ac:a0:de:s8,00:1a:ac:a0:de:g7,00:1a:ac:a0:de:m6,00:1a:ac:a0:de:d7,00:1a:ac:a0:de:n5,00:1a:ac:a0:de:t2,00:1a:ac:a0:de:u5,00:1a:ac:a0:de:c2,00:1a:ac:a0:de:f2,00:1a:ac:a0:de:l1,00:1a:ac:a0:de:p8,00:1a:ac:a0:de:f3,00:1a:ac:a0:de:k9,00:1a:ac:a0:de:r6,00:1a:ac:a0:de:w3,00:1a:ac:a0:de:q6,00:1a:ac:a0:de:v3,00:1a:cs:a0:de:10,00:1a:ac:a0:de:g2,00:1a:cs:a0:de:52,00:1a:cs:a0:de:53,00:1a:ac:a0:de:e4,00:1a:ac:a0:de:p9,00:1a:ac:a0:de:u6,00:1a:ac:a0:de:x5,00:1a:ac:a0:de:r8,00:1a:ac:a0:de:w5,00:1a:ac:a0:de:n8,00:1a:ab:a0:de:a3,00:1a:ac:a0:de:i9,00:1a:ac:a0:de:p3,00:1a:ac:a0:de:t6,00:1a:ac:a0:de:t9,00:1a:ac:a0:de:n9,70:5d:cc:b5:7e:cc,00:1a:ac:a0:de:d2,2c:5d:93:16:e5:d8,00:1a:ac:a0:de:q2,00:1a:ac:a0:de:q3,00:1a:ac:a0:de:u8,00:1a:ac:a0:de:u9,70:5d:cc:05:03:10
2021.02.07 165843,46.0,24.0,25.232678312499996,3.9123213651785718,-29.862321053571428,-0.3041156558035714,0.8152933251785716,9.952872053571427,0.0021429153664285715,-0.0012683743271428567,-0.0036804631176785715,-0.0817043793919895,0.030658728696705193,-1.3123262865202767,1011.6708407142858,-66.0,-57.0,-91.0,-83.0,-73.0,-80.0,-80.0,-54.0,-85.0,-68.0,-63.0,-86.0,-49.0,-67.0,-64.0,-87.0,-87.0,-49.0,-68.0,-100.0,-100.0,-100.0,-100.0,-100.0,-100.0,-100.0,-100.0,-100.0,-100.0,-100.0,-100.0,-100.0,-100.0,-100.0,-100.0,-100.0,-100.0,-100.0,-100.0,-100.0,-100.0,-100.0,-100.0,-100.0,-100.0,-100.0,-100.0,-100.0,-100.0,-100.0,-100.0,-100.0,-100.0,-100.0,-100.0,-100.0,-100.0,-100.0,-100.0,-100.0,-100.0,-100.0,-100.0,-100.0,-100.0,-100.0,-100.0,-100.0,-100.0,-100.0,-100.0,-100.0,-100.0,-100.0,-100.0,-100.0,-100.0,-100.0,-100.0,-100.0,-100.0,-100.0,-100.0,-100.0,-100.0,-100.0,-100.0,-100.0,-100.0,-100.0,-100.0,-100.0,-100.0,-100.0,-100.0,-100.0,-100.0,-100.0,-100.0,-100.0,-100.0,-100.0,-100.0,-100.0,-100.0,-100.0,-100.0,-100.0,-100.0,-100.0,-100.0,-100.0,-100.0,-100.0,-100.0,-100.0,-100.0,-100.0,-100.0,-100.0,-100.0,-100.0,-100.0,-100.0,-100.0
2021.02.07 165855,47.0,24.0,26.212173626086955,6.295304253913043,-28.71130393913043,-0.33753028904347826,0.6838881583478261,9.969427226086959,0.0024529960264347826,-0.0022537740558260873,-0.005274688578608695,-0.06844381923260894,0.03388020233453611,-1.251661125473354,1011.6524801739132,-100.0,-100.0,-88.0,-100.0,-100.0,-79.0,-78.0,-88.0,-87.0,-100.0,-65.0,-82.0,-55.0,-60.0,-64.0,-82.0,-60.0,-54.0,-60.0,-61.0,-61.0,-79.0,-67.0,-85.0,-56.0,-80.0,-62.0,-68.0,-90.0,-74.0,-68.0,-86.0,-68.0,-72.0,-60.0,-69.0,-68.0,-79.0,-77.0,-44.0,-47.0,-72.0,-76.0,-62.0,-67.0,-80.0,-67.0,-87.0,-66.0,-72.0,-69.0,-69.0,-79.0,-76.0,-43.0,-47.0,-74.0,-76.0,-62.0,-67.0,-100.0,-100.0,-100.0,-100.0,-100.0,-100.0,-100.0,-100.0,-100.0,-100.0,-100.0,-100.0,-100.0,-100.0,-100.0,-100.0,-100.0,-100.0,-100.0,-100.0,-100.0,-100.0,-100.0,-100.0,-100.0,-100.0,-100.0,-100.0,-100.0,-100.0,-100.0,-100.0,-100.0,-100.0,-100.0,-100.0,-100.0,-100.0,-100.0,-100.0,-100.0,-100.0,-100.0,-100.0,-100.0,-100.0,-100.0,-100.0,-100.0,-100.0,-100.0,-100.0,-100.0,-100.0,-100.0,-100.0,-100.0,-100.0,-100.0,-100.0,-100.0,-100.0,-100.0,-100.0,-100.0
2021.02.07 165906,48.0,24.0,26.326551422413793,5.551034412931035,-26.498275517241378,-0.2607076289224138,0.6789007480172413,9.966684922413794,0.00010230949370689618,-0.0015931787701724133,-0.004004326976896551,-0.06797991259473148,0.026164972885704456,-1.289375940273548,1011.6441487931033,-100.0,-100.0,-84.0,-100.0,-74.0,-100.0,-100.0,-88.0,-80.0,-71.0,-64.0,-80.0,-49.0,-51.0,-63.0,-81.0,-61.0,-49.0,-51.0,-56.0,-60.0,-100.0,-71.0,-85.0,-60.0,-75.0,-64.0,-68.0,-100.0,-72.0,-70.0,-86.0,-70.0,-75.0,-61.0,-71.0,-100.0,-80.0,-75.0,-48.0,-49.0,-73.0,-75.0,-65.0,-71.0,-100.0,-70.0,-87.0,-70.0,-76.0,-71.0,-76.0,-79.0,-100.0,-48.0,-49.0,-73.0,-76.0,-59.0,-71.0,-87.0,-76.0,-67.0,-57.0,-89.0,-89.0,-100.0,-100.0,-100.0,-100.0,-100.0,-100.0,-100.0,-100.0,-100.0,-100.0,-100.0,-100.0,-100.0,-100.0,-100.0,-100.0,-100.0,-100.0,-100.0,-100.0,-100.0,-100.0,-100.0,-100.0,-100.0,-100.0,-100.0,-100.0,-100.0,-100.0,-100.0,-100.0,-100.0,-100.0,-100.0,-100.0,-100.0,-100.0,-100.0,-100.0,-100.0,-100.0,-100.0,-100.0,-100.0,-100.0,-100.0,-100.0,-100.0,-100.0,-100.0,-100.0,-100.0,-100.0,-100.0,-100.0,-100.0,-100.0,-100.0
2021.02.07 165919,48.0,23.0,12.018749651785715,-30.077142464285714,-29.590178178571428,-0.24227068179285713,0.5194507466071429,9.984168683035714,0.007826143846785713,-0.00018299787446428542,-0.004645848300357143,-0.05197593838342328,0.024311737823804143,-2.7650056630373,1011.6550998214286,-100.0,-89.0,-82.0,-100.0,-78.0,-73.0,-79.0,-89.0,-81.0,-67.0,-64.0,-80.0,-47.0,-58.0,-65.0,-80.0,-66.0,-46.0,-58.0,-57.0,-62.0,-81.0,-72.0,-100.0,-56.0,-100.0,-66.0,-66.0,-100.0,-74.0,-100.0,-88.0,-69.0,-74.0,-66.0,-76.0,-74.0,-76.0,-75.0,-44.0,-47.0,-75.0,-73.0,-100.0,-69.0,-78.0,-100.0,-88.0,-70.0,-74.0,-76.0,-100.0,-76.0,-75.0,-44.0,-47.0,-74.0,-73.0,-70.0,-70.0,-100.0,-100.0,-100.0,-100.0,-100.0,-100.0,-84.0,-77.0,-100.0,-100.0,-100.0,-100.0,-100.0,-100.0,-100.0,-100.0,-100.0,-100.0,-100.0,-100.0,-100.0,-100.0,-100.0,-100.0,-100.0,-100.0,-100.0,-100.0,-100.0,-100.0,-100.0,-100.0,-100.0,-100.0,-100.0,-100.0,-100.0,-100.0,-100.0,-100.0,-100.0,-100.0,-100.0,-100.0,-100.0,-100.0,-100.0,-100.0,-100.0,-100.0,-100.0,-100.0,-100.0,-100.0,-100.0,-100.0,-100.0,-100.0,-100.0,-100.0,-100.0,-100.0,-100.0,-100.0,-100.0
2021.02.07 165931,48.0,22.0,12.26920325663717,-30.622831415929202,-28.50902618584071,-0.35339919938053105,0.5627181442477875,9.967005769911504,0.00012178929088495609,0.00040112760318584056,-0.002266147870088495,-0.05637138531403199,0.03552038016506524,-2.7715360337654045,1011.6656966371683,-100.0,-100.0,-84.0,-78.0,-70.0,-100.0,-100.0,-100.0,-100.0,-72.0,-64.0,-84.0,-52.0,-64.0,-64.0,-82.0,-69.0,-53.0,-64.0,-60.0,-70.0,-83.0,-69.0,-76.0,-58.0,-77.0,-59.0,-68.0,-89.0,-70.0,-74.0,-80.0,-62.0,-65.0,-69.0,-81.0,-100.0,-78.0,-76.0,-54.0,-65.0,-74.0,-75.0,-67.0,-59.0,-100.0,-72.0,-81.0,-68.0,-65.0,-81.0,-100.0,-78.0,-70.0,-54.0,-65.0,-74.0,-75.0,-66.0,-59.0,-80.0,-63.0,-72.0,-100.0,-100.0,-100.0,-70.0,-100.0,-86.0,-83.0,-84.0,-100.0,-100.0,-100.0,-100.0,-100.0,-100.0,-100.0,-100.0,-100.0,-100.0,-100.0,-100.0,-100.0,-100.0,-100.0,-100.0,-100.0,-100.0,-100.0,-100.0,-100.0,-100.0,-100.0,-100.0,-100.0,-100.0,-100.0,-100.0,-100.0,-100.0,-100.0,-100.0,-100.0,-100.0,-100.0,-100.0,-100.0,-100.0,-100.0,-100.0,-100.0,-100.0,-100.0,-100.0,-100.0,-100.0,-100.0,-100.0,-100.0,-100.0,-100.0,-100.0,-100.0,-100.0
2021.02.07 165941,48.0,21.0,19.764642660714287,-26.921249687499994,-18.118928357142856,-0.30608238197142856,0.54125575375,9.979316008928572,0.0020829195185714283,-1.391892107142837e-05,-0.006462081696160715,-0.05415750940197276,0.030672357496898988,-2.503337406686374,1011.6655973214287,-100.0,-100.0,-100.0,-100.0,-81.0,-100.0,-72.0,-100.0,-87.0,-100.0,-76.0,-86.0,-61.0,-69.0,-76.0,-86.0,-80.0,-61.0,-69.0,-56.0,-72.0,-100.0,-72.0,-78.0,-59.0,-79.0,-55.0,-68.0,-88.0,-68.0,-69.0,-81.0,-70.0,-74.0,-81.0,-85.0,-100.0,-79.0,-100.0,-54.0,-65.0,-81.0,-81.0,-60.0,-64.0,-100.0,-70.0,-80.0,-71.0,-74.0,-85.0,-100.0,-78.0,-100.0,-56.0,-65.0,-81.0,-80.0,-67.0,-64.0,-86.0,-100.0,-65.0,-54.0,-100.0,-100.0,-81.0,-100.0,-100.0,-100.0,-100.0,-89.0,-90.0,-88.0,-100.0,-100.0,-100.0,-100.0,-100.0,-100.0,-100.0,-100.0,-100.0,-100.0,-100.0,-100.0,-100.0,-100.0,-100.0,-100.0,-100.0,-100.0,-100.0,-100.0,-100.0,-100.0,-100.0,-100.0,-100.0,-100.0,-100.0,-100.0,-100.0,-100.0,-100.0,-100.0,-100.0,-100.0,-100.0,-100.0,-100.0,-100.0,-100.0,-100.0,-100.0,-100.0,-100.0,-100.0,-100.0,-100.0,-100.0,-100.0,-100.0,-100.0,-100.0
2021.02.07 165952,48.0,20.0,10.435384381196581,-23.909230478632484,-20.768204897435893,-0.13205346424957262,0.6418702845299147,9.973730230769231,-0.0014563602660683764,-0.0024527648217094015,-0.004713582590427351,-0.06427254623327495,0.013255786550933707,-2.7192409914782925,1011.6725741025639,-100.0,-93.0,-100.0,-100.0,-86.0,-73.0,-79.0,-100.0,-85.0,-77.0,-75.0,-100.0,-67.0,-78.0,-74.0,-100.0,-81.0,-67.0,-78.0,-71.0,-69.0,-83.0,-59.0,-86.0,-59.0,-75.0,-55.0,-61.0,-100.0,-61.0,-76.0,-85.0,-79.0,-82.0,-81.0,-100.0,-70.0,-76.0,-83.0,-56.0,-65.0,-84.0,-89.0,-75.0,-76.0,-100.0,-75.0,-86.0,-75.0,-82.0,-100.0,-70.0,-76.0,-82.0,-57.0,-65.0,-84.0,-90.0,-75.0,-76.0,-100.0,-100.0,-63.0,-52.0,-100.0,-90.0,-100.0,-100.0,-90.0,-100.0,-100.0,-87.0,-90.0,-100.0,-90.0,-92.0,-100.0,-100.0,-100.0,-100.0,-100.0,-100.0,-100.0,-100.0,-100.0,-100.0,-100.0,-100.0,-100.0,-100.0,-100.0,-100.0,-100.0,-100.0,-100.0,-100.0,-100.0,-100.0,-100.0,-100.0,-100.0,-100.0,-100.0,-100.0,-100.0,-100.0,-100.0,-100.0,-100.0,-100.0,-100.0,-100.0,-100.0,-100.0,-100.0,-100.0,-100.0,-100.0,-100.0,-100.0,-100.0,-100.0,-100.0,-100.0,-100.0
2021.02.07 170005,48.0,19.0,10.725132420353981,-31.249380035398225,-33.666902088495576,-0.19512280319469025,0.7781181246902654,9.970438300884958,-0.0021108420453982302,-0.004323617637876107,-0.0006822229918584072,-0.07787501413078432,0.019589060258153223,-2.8034575175395053,1011.6669192035399,-100.0,-100.0,-90.0,-100.0,-86.0,-72.0,-84.0,-100.0,-87.0,-79.0,-77.0,-100.0,-74.0,-79.0,-77.0,-100.0,-84.0,-75.0,-79.0,-66.0,-74.0,-100.0,-65.0,-100.0,-57.0,-84.0,-58.0,-57.0,-100.0,-66.0,-74.0,-86.0,-77.0,-84.0,-87.0,-100.0,-100.0,-75.0,-86.0,-57.0,-68.0,-100.0,-89.0,-68.0,-73.0,-84.0,-75.0,-88.0,-83.0,-83.0,-100.0,-73.0,-75.0,-85.0,-58.0,-68.0,-89.0,-100.0,-69.0,-73.0,-100.0,-76.0,-100.0,-59.0,-100.0,-100.0,-83.0,-100.0,-100.0,-100.0,-100.0,-87.0,-100.0,-100.0,-100.0,-100.0,-91.0,-91.0,-100.0,-100.0,-100.0,-100.0,-100.0,-100.0,-100.0,-100.0,-100.0,-100.0,-100.0,-100.0,-100.0,-100.0,-100.0,-100.0,-100.0,-100.0,-100.0,-100.0,-100.0,-100.0,-100.0,-100.0,-100.0,-100.0,-100.0,-100.0,-100.0,-100.0,-100.0,-100.0,-100.0,-100.0,-100.0,-100.0,-100.0,-100.0,-100.0,-100.0,-100.0,-100.0,-100.0,-100.0,-100.0,-100.0,-100.0
2021.02.07 170016,48.0,18.0,10.564864527027028,-31.668107756756758,-36.94162110810811,-0.1038381888918919,0.47982561913513516,9.976511680180185,0.0036391222537837833,-0.0018287764594594593,-0.0035848433829729727,-0.048050308818215676,0.010421368258854187,-2.814447475983216,1011.6915827027027,-100.0,-100.0,-90.0,-82.0,-100.0,-65.0,-84.0,-100.0,-100.0,-70.0,-86.0,-100.0,-77.0,-83.0,-86.0,-100.0,-85.0,-76.0,-82.0,-59.0,-76.0,-89.0,-67.0,-100.0,-58.0,-79.0,-65.0,-64.0,-89.0,-67.0,-77.0,-100.0,-82.0,-86.0,-88.0,-100.0,-78.0,-72.0,-88.0,-60.0,-66.0,-100.0,-91.0,-76.0,-77.0,-100.0,-80.0,-100.0,-100.0,-87.0,-100.0,-78.0,-72.0,-90.0,-60.0,-66.0,-100.0,-89.0,-75.0,-77.0,-100.0,-78.0,-69.0,-53.0,-100.0,-100.0,-86.0,-100.0,-100.0,-100.0,-100.0,-83.0,-88.0,-100.0,-90.0,-100.0,-100.0,-100.0,-100.0,-100.0,-100.0,-100.0,-100.0,-100.0,-100.0,-100.0,-100.0,-100.0,-100.0,-100.0,-100.0,-100.0,-100.0,-100.0,-100.0,-100.0,-100.0,-100.0,-100.0,-100.0,-100.0,-100.0,-100.0,-100.0,-100.0,-100.0,-100.0,-100.0,-100.0,-100.0,-100.0,-100.0,-100.0,-100.0,-100.0,-100.0,-100.0,-100.0,-100.0,-100.0,-100.0,-100.0,-100.0,-100.0,-100.0
2021.02.07 170030,48.0,17.0,9.416841890350877,-33.122631140350876,-35.034736377192985,-0.19267611496491227,0.49790415192982457,9.984861057017543,0.0018334638989473688,0.000342706159122807,-0.001224945546578947,-0.049813757732249095,0.019302815149881292,-2.870587658463863,1011.7065350877194,-100.0,-100.0,-88.0,-83.0,-85.0,-64.0,-79.0,-100.0,-85.0,-100.0,-78.0,-100.0,-75.0,-81.0,-81.0,-100.0,-89.0,-76.0,-81.0,-59.0,-77.0,-84.0,-62.0,-89.0,-55.0,-90.0,-55.0,-68.0,-90.0,-62.0,-85.0,-91.0,-85.0,-100.0,-88.0,-100.0,-76.0,-73.0,-100.0,-58.0,-72.0,-100.0,-100.0,-81.0,-85.0,-88.0,-84.0,-90.0,-86.0,-100.0,-100.0,-76.0,-73.0,-100.0,-58.0,-72.0,-100.0,-100.0,-80.0,-85.0,-100.0,-71.0,-100.0,-55.0,-100.0,-100.0,-88.0,-89.0,-100.0,-100.0,-100.0,-78.0,-85.0,-100.0,-100.0,-88.0,-100.0,-100.0,-87.0,-91.0,-100.0,-100.0,-100.0,-100.0,-100.0,-100.0,-100.0,-100.0,-100.0,-100.0,-100.0,-100.0,-100.0,-100.0,-100.0,-100.0,-100.0,-100.0,-100.0,-100.0,-100.0,-100.0,-100.0,-100.0,-100.0,-100.0,-100.0,-100.0,-100.0,-100.0,-100.0,-100.0,-100.0,-100.0,-100.0,-100.0,-100.0,-100.0,-100.0,-100.0,-100.0,-100.0,-100.0,-100.0,-100.0
2021.02.07 170042,48.0,16.0,8.205517047413794,-33.188275327586204,-33.13965465517241,-0.26671395703448275,0.3348063073275863,9.978965793103447,0.0036411150118965505,-0.00038198027982758593,-0.0024455673473275865,-0.03351746245833302,0.026769333695671634,-2.91781197334158,1011.7448313793103,-100.0,-100.0,-100.0,-84.0,-88.0,-65.0,-81.0,-100.0,-88.0,-100.0,-82.0,-100.0,-78.0,-83.0,-82.0,-100.0,-88.0,-78.0,-84.0,-61.0,-73.0,-79.0,-54.0,-100.0,-50.0,-90.0,-64.0,-72.0,-100.0,-74.0,-82.0,-88.0,-100.0,-90.0,-88.0,-100.0,-70.0,-73.0,-88.0,-63.0,-70.0,-93.0,-100.0,-100.0,-87.0,-86.0,-82.0,-87.0,-87.0,-89.0,-100.0,-74.0,-73.0,-89.0,-63.0,-70.0,-100.0,-100.0,-100.0,-88.0,-100.0,-68.0,-69.0,-61.0,-100.0,-100.0,-100.0,-100.0,-100.0,-100.0,-100.0,-74.0,-82.0,-100.0,-100.0,-100.0,-88.0,-100.0,-86.0,-100.0,-100.0,-100.0,-100.0,-100.0,-100.0,-100.0,-100.0,-100.0,-100.0,-100.0,-100.0,-100.0,-100.0,-100.0,-100.0,-100.0,-100.0,-100.0,-100.0,-100.0,-100.0,-100.0,-100.0,-100.0,-100.0,-100.0,-100.0,-100.0,-100.0,-100.0,-100.0,-100.0,-100.0,-100.0,-100.0,-100.0,-100.0,-100.0,-100.0,-100.0,-100.0,-100.0,-100.0,-100.0,-100.0
2021.02.07 170053,48.0,15.0,11.418583800884957,-32.78389343362832,-30.891503876106192,-0.2258034213982301,0.3464282567256637,9.983977628318584,0.0014462315711504421,-0.00023136112495575207,-0.006817904855663716,-0.03467734931943422,0.022661359022593953,-2.816176847019027,1011.7816297345133,-100.0,-100.0,-91.0,-88.0,-100.0,-62.0,-72.0,-100.0,-89.0,-86.0,-85.0,-100.0,-74.0,-85.0,-83.0,-100.0,-100.0,-74.0,-85.0,-56.0,-74.0,-78.0,-63.0,-100.0,-46.0,-89.0,-57.0,-74.0,-100.0,-71.0,-85.0,-90.0,-100.0,-100.0,-100.0,-100.0,-69.0,-69.0,-86.0,-61.0,-73.0,-100.0,-100.0,-84.0,-100.0,-85.0,-84.0,-89.0,-100.0,-100.0,-100.0,-69.0,-69.0,-87.0,-61.0,-73.0,-100.0,-100.0,-85.0,-100.0,-100.0,-75.0,-76.0,-58.0,-100.0,-100.0,-100.0,-100.0,-100.0,-100.0,-100.0,-78.0,-81.0,-100.0,-93.0,-100.0,-90.0,-100.0,-100.0,-100.0,-91.0,-100.0,-100.0,-100.0,-100.0,-100.0,-100.0,-100.0,-100.0,-100.0,-100.0,-100.0,-100.0,-100.0,-100.0,-100.0,-100.0,-100.0,-100.0,-100.0,-100.0,-100.0,-100.0,-100.0,-100.0,-100.0,-100.0,-100.0,-100.0,-100.0,-100.0,-100.0,-100.0,-100.0,-100.0,-100.0,-100.0,-100.0,-100.0,-100.0,-100.0,-100.0,-100.0,-100.0,-100.0
2021.02.07 170104,48.0,14.0,12.299507872950821,-29.729999631147543,-33.13721259836066,-0.2060450084622951,0.36308588601639347,9.986382881147541,0.004702791145409836,-0.0017475353250819665,-0.007379452326311475,-0.036322408615321364,0.020656633686052864,-2.7553860085909485,1011.8262796721311,-100.0,-100.0,-100.0,-100.0,-100.0,-69.0,-75.0,-100.0,-100.0,-100.0,-83.0,-100.0,-84.0,-100.0,-83.0,-100.0,-100.0,-85.0,-100.0,-62.0,-79.0,-85.0,-60.0,-100.0,-44.0,-87.0,-63.0,-74.0,-83.0,-70.0,-83.0,-87.0,-100.0,-100.0,-100.0,-100.0,-75.0,-74.0,-100.0,-64.0,-72.0,-100.0,-100.0,-83.0,-88.0,-100.0,-84.0,-89.0,-100.0,-100.0,-100.0,-75.0,-74.0,-100.0,-63.0,-72.0,-100.0,-100.0,-82.0,-87.0,-100.0,-64.0,-69.0,-55.0,-100.0,-100.0,-100.0,-100.0,-100.0,-100.0,-100.0,-75.0,-81.0,-100.0,-100.0,-90.0,-100.0,-100.0,-100.0,-90.0,-100.0,-92.0,-100.0,-100.0,-100.0,-100.0,-100.0,-100.0,-100.0,-100.0,-100.0,-100.0,-100.0,-100.0,-100.0,-100.0,-100.0,-100.0,-100.0,-100.0,-100.0,-100.0,-100.0,-100.0,-100.0,-100.0,-100.0,-100.0,-100.0,-100.0,-100.0,-100.0,-100.0,-100.0,-100.0,-100.0,-100.0,-100.0,-100.0,-100.0,-100.0,-100.0,-100.0,-100.0,-100.0
2021.02.07 170116,48.0,13.0,8.653090784545455,-29.92363597272728,-31.23818133636364,-0.15482251424181823,0.6027477988181817,9.97587659545455,0.00044776420609090933,-0.0018606953865454544,0.001127324015363637,-0.060312906991351695,0.015539812477601821,-2.858554668860002,1011.8611606363637,-100.0,-100.0,-100.0,-81.0,-100.0,-57.0,-74.0,-100.0,-88.0,-100.0,-81.0,-100.0,-82.0,-100.0,-82.0,-100.0,-100.0,-81.0,-100.0,-67.0,-78.0,-83.0,-61.0,-100.0,-56.0,-93.0,-59.0,-78.0,-76.0,-75.0,-100.0,-88.0,-100.0,-100.0,-100.0,-100.0,-79.0,-77.0,-87.0,-70.0,-73.0,-100.0,-100.0,-89.0,-100.0,-100.0,-100.0,-90.0,-100.0,-100.0,-100.0,-79.0,-77.0,-87.0,-69.0,-74.0,-100.0,-100.0,-89.0,-100.0,-100.0,-69.0,-72.0,-61.0,-100.0,-100.0,-100.0,-100.0,-91.0,-100.0,-100.0,-74.0,-81.0,-100.0,-100.0,-88.0,-100.0,-100.0,-100.0,-100.0,-90.0,-100.0,-92.0,-100.0,-100.0,-100.0,-100.0,-100.0,-100.0,-100.0,-100.0,-100.0,-100.0,-100.0,-100.0,-100.0,-100.0,-100.0,-100.0,-100.0,-100.0,-100.0,-100.0,-100.0,-100.0,-100.0,-100.0,-100.0,-100.0,-100.0,-100.0,-100.0,-100.0,-100.0,-100.0,-100.0,-100.0,-100.0,-100.0,-100.0,-100.0,-100.0,-100.0,-100.0,-100.0
2021.02.07 170127,49.0,13.0,25.590475912698416,3.9571428198412706,-35.89904717460318,-0.15019323874603174,0.5302558642857144,9.981009539682539,-0.00040356862007936517,-0.0022931493036507937,-0.0067456977069047614,-0.053078786824785486,0.01507120800011393,-1.3385940922631159,1011.8743556349207,-100.0,-100.0,-100.0,-100.0,-100.0,-58.0,-75.0,-100.0,-89.0,-100.0,-80.0,-100.0,-82.0,-100.0,-82.0,-100.0,-100.0,-81.0,-100.0,-73.0,-68.0,-80.0,-60.0,-100.0,-53.0,-100.0,-59.0,-76.0,-70.0,-71.0,-85.0,-100.0,-100.0,-100.0,-100.0,-100.0,-78.0,-80.0,-100.0,-65.0,-72.0,-100.0,-100.0,-80.0,-100.0,-100.0,-86.0,-100.0,-100.0,-100.0,-100.0,-100.0,-80.0,-100.0,-66.0,-72.0,-100.0,-100.0,-80.0,-100.0,-100.0,-66.0,-76.0,-56.0,-100.0,-100.0,-100.0,-100.0,-88.0,-100.0,-100.0,-75.0,-82.0,-100.0,-100.0,-89.0,-100.0,-100.0,-86.0,-100.0,-89.0,-92.0,-90.0,-90.0,-100.0,-100.0,-100.0,-100.0,-100.0,-100.0,-100.0,-100.0,-100.0,-100.0,-100.0,-100.0,-100.0,-100.0,-100.0,-100.0,-100.0,-100.0,-100.0,-100.0,-100.0,-100.0,-100.0,-100.0,-100.0,-100.0,-100.0,-100.0,-100.0,-100.0,-100.0,-100.0,-100.0,-100.0,-100.0,-100.0,-100.0,-100.0,-100.0,-100.0,-100.0
2021.02.07 170144,50.0,13.0,-13.438937690265487,13.920530756637167,-32.88637122123894,-0.2717607843362832,0.5799230200884956,9.970438269911504,0.0038086044563716815,-0.000577337835575221,-0.003882508139557522,-0.058075935505660196,0.02727017208801957,0.7348302761010365,1011.8690426548673,-100.0,-100.0,-100.0,-100.0,-100.0,-56.0,-70.0,-100.0,-100.0,-79.0,-79.0,-90.0,-79.0,-90.0,-79.0,-100.0,-100.0,-76.0,-100.0,-59.0,-80.0,-74.0,-60.0,-100.0,-52.0,-100.0,-57.0,-74.0,-89.0,-78.0,-75.0,-88.0,-100.0,-100.0,-100.0,-100.0,-68.0,-70.0,-80.0,-59.0,-62.0,-100.0,-100.0,-83.0,-86.0,-90.0,-76.0,-88.0,-100.0,-100.0,-100.0,-68.0,-70.0,-80.0,-59.0,-62.0,-100.0,-100.0,-77.0,-86.0,-100.0,-70.0,-100.0,-59.0,-100.0,-100.0,-100.0,-90.0,-100.0,-100.0,-100.0,-76.0,-82.0,-100.0,-100.0,-85.0,-90.0,-100.0,-77.0,-100.0,-100.0,-100.0,-100.0,-100.0,-94.0,-92.0,-100.0,-100.0,-100.0,-100.0,-100.0,-100.0,-100.0,-100.0,-100.0,-100.0,-100.0,-100.0,-100.0,-100.0,-100.0,-100.0,-100.0,-100.0,-100.0,-100.0,-100.0,-100.0,-100.0,-100.0,-100.0,-100.0,-100.0,-100.0,-100.0,-100.0,-100.0,-100.0,-100.0,-100.0,-100.0,-100.0,-100.0,-100.0,-100.0
2021.02.07 170154,50.0,14.0,-8.30120675086207,11.86965490086207,-29.63172385344828,-0.20634107914655167,0.4328477331896552,9.977046280172413,0.004136126519310346,-0.002425219393448275,-0.0077590417989655165,-0.0433118727523833,0.02070907951866529,0.5927226602517325,1011.8934324137931,-100.0,-100.0,-100.0,-100.0,-100.0,-57.0,-74.0,-100.0,-100.0,-100.0,-81.0,-89.0,-85.0,-85.0,-81.0,-90.0,-100.0,-85.0,-85.0,-70.0,-81.0,-63.0,-65.0,-100.0,-58.0,-100.0,-63.0,-78.0,-89.0,-79.0,-81.0,-84.0,-88.0,-100.0,-100.0,-100.0,-67.0,-61.0,-86.0,-64.0,-73.0,-100.0,-100.0,-84.0,-86.0,-81.0,-82.0,-84.0,-88.0,-100.0,-100.0,-66.0,-60.0,-88.0,-64.0,-73.0,-100.0,-100.0,-85.0,-86.0,-100.0,-63.0,-100.0,-100.0,-91.0,-90.0,-100.0,-82.0,-100.0,-100.0,-100.0,-70.0,-79.0,-100.0,-92.0,-100.0,-88.0,-90.0,-82.0,-100.0,-100.0,-93.0,-100.0,-100.0,-91.0,-100.0,-91.0,-100.0,-100.0,-100.0,-100.0,-100.0,-100.0,-100.0,-100.0,-100.0,-100.0,-100.0,-100.0,-100.0,-100.0,-100.0,-100.0,-100.0,-100.0,-100.0,-100.0,-100.0,-100.0,-100.0,-100.0,-100.0,-100.0,-100.0,-100.0,-100.0,-100.0,-100.0,-100.0,-100.0,-100.0,-100.0,-100.0,-100.0,-100.0
2021.02.07 170205,50.0,15.0,-7.254871696581196,15.885127923076924,-30.166666196581197,-0.12255822134358975,0.32912069709401715,9.98787078205128,0.0021931680496581197,-0.004421108543418804,-0.0068907688123931625,-0.032940691480269756,0.012282007500856604,0.4222402377770497,1011.9377600854699,-100.0,-100.0,-100.0,-90.0,-100.0,-54.0,-72.0,-100.0,-100.0,-100.0,-83.0,-84.0,-78.0,-86.0,-81.0,-85.0,-100.0,-80.0,-87.0,-62.0,-82.0,-70.0,-64.0,-100.0,-58.0,-90.0,-64.0,-78.0,-89.0,-79.0,-79.0,-83.0,-100.0,-100.0,-100.0,-100.0,-53.0,-58.0,-84.0,-69.0,-78.0,-100.0,-100.0,-90.0,-90.0,-84.0,-79.0,-83.0,-100.0,-100.0,-100.0,-53.0,-58.0,-83.0,-68.0,-78.0,-100.0,-100.0,-90.0,-90.0,-100.0,-64.0,-82.0,-59.0,-100.0,-100.0,-100.0,-85.0,-85.0,-100.0,-100.0,-65.0,-72.0,-100.0,-100.0,-100.0,-87.0,-100.0,-79.0,-100.0,-100.0,-100.0,-100.0,-100.0,-100.0,-100.0,-100.0,-100.0,-100.0,-100.0,-100.0,-100.0,-100.0,-100.0,-100.0,-100.0,-100.0,-100.0,-100.0,-100.0,-100.0,-100.0,-100.0,-100.0,-100.0,-100.0,-100.0,-100.0,-100.0,-100.0,-100.0,-100.0,-100.0,-100.0,-100.0,-100.0,-100.0,-100.0,-100.0,-100.0,-100.0,-100.0,-100.0,-100.0,-100.0
2021.02.07 170216,50.0,16.0,-6.549391199130435,18.61408679130435,-31.882434252173915,-0.13068576494782608,0.12167079985565217,10.000323786956523,0.00408374033826087,-0.0030293072939130434,-0.001173923612869565,-0.012174889763675428,0.013076713020690548,0.3483497245156247,1011.9876113043481,-100.0,-100.0,-100.0,-100.0,-100.0,-49.0,-69.0,-100.0,-100.0,-100.0,-72.0,-86.0,-80.0,-87.0,-71.0,-86.0,-100.0,-80.0,-87.0,-69.0,-81.0,-64.0,-68.0,-100.0,-60.0,-100.0,-62.0,-75.0,-84.0,-80.0,-75.0,-79.0,-100.0,-100.0,-100.0,-100.0,-61.0,-60.0,-78.0,-64.0,-76.0,-100.0,-100.0,-85.0,-100.0,-82.0,-76.0,-79.0,-100.0,-100.0,-100.0,-61.0,-60.0,-100.0,-63.0,-76.0,-100.0,-100.0,-85.0,-100.0,-100.0,-69.0,-75.0,-67.0,-88.0,-91.0,-100.0,-81.0,-84.0,-100.0,-90.0,-61.0,-78.0,-100.0,-100.0,-90.0,-85.0,-100.0,-75.0,-100.0,-100.0,-87.0,-100.0,-100.0,-100.0,-92.0,-100.0,-100.0,-100.0,-100.0,-100.0,-100.0,-100.0,-100.0,-100.0,-100.0,-100.0,-100.0,-100.0,-100.0,-100.0,-100.0,-100.0,-100.0,-100.0,-100.0,-100.0,-100.0,-100.0,-100.0,-100.0,-100.0,-100.0,-100.0,-100.0,-100.0,-100.0,-100.0,-100.0,-100.0,-100.0,-100.0,-100.0,-100.0,-100.0
2021.02.07 170226,50.0,17.0,-7.181538339316241,19.140512564102565,-32.246153444444445,-0.13395660576581198,0.16821315330256417,9.996301910256411,0.002276705088034189,-0.0036327268347008538,-0.0023745428414529914,-0.016812088877424303,0.013417121405518198,0.3658275555851113,1012.0454921367519,-100.0,-100.0,-100.0,-100.0,-86.0,-58.0,-59.0,-100.0,-100.0,-100.0,-67.0,-82.0,-78.0,-88.0,-70.0,-82.0,-100.0,-77.0,-89.0,-77.0,-87.0,-65.0,-70.0,-100.0,-61.0,-100.0,-69.0,-80.0,-84.0,-85.0,-78.0,-74.0,-88.0,-100.0,-100.0,-100.0,-59.0,-62.0,-76.0,-63.0,-76.0,-100.0,-100.0,-100.0,-100.0,-100.0,-78.0,-74.0,-88.0,-100.0,-100.0,-59.0,-62.0,-77.0,-62.0,-76.0,-100.0,-100.0,-100.0,-100.0,-100.0,-69.0,-78.0,-69.0,-89.0,-87.0,-100.0,-100.0,-77.0,-86.0,-100.0,-66.0,-77.0,-100.0,-100.0,-87.0,-84.0,-100.0,-71.0,-100.0,-100.0,-92.0,-100.0,-100.0,-100.0,-100.0,-100.0,-90.0,-90.0,-89.0,-100.0,-100.0,-100.0,-100.0,-100.0,-100.0,-100.0,-100.0,-100.0,-100.0,-100.0,-100.0,-100.0,-100.0,-100.0,-100.0,-100.0,-100.0,-100.0,-100.0,-100.0,-100.0,-100.0,-100.0,-100.0,-100.0,-100.0,-100.0,-100.0,-100.0,-100.0,-100.0,-100.0,-100.0,-100.0
2021.02.07 170237,50.0,18.0,-9.466315556140351,20.058420754385963,-30.416841710526317,-0.24644228540350877,0.2052565581754386,9.993240956140351,-0.0011029760941228075,-0.003606483997894737,-0.006186886045087721,-0.02053397242796782,0.02470021595026508,0.4562045246885534,1012.0795524561403,-100.0,-100.0,-100.0,-100.0,-89.0,-56.0,-66.0,-100.0,-100.0,-100.0,-66.0,-84.0,-78.0,-87.0,-66.0,-84.0,-100.0,-78.0,-89.0,-69.0,-82.0,-67.0,-74.0,-100.0,-62.0,-92.0,-68.0,-79.0,-100.0,-85.0,-74.0,-75.0,-100.0,-100.0,-100.0,-100.0,-61.0,-57.0,-79.0,-68.0,-73.0,-100.0,-100.0,-86.0,-100.0,-75.0,-74.0,-75.0,-100.0,-100.0,-100.0,-60.0,-57.0,-79.0,-69.0,-73.0,-100.0,-100.0,-85.0,-100.0,-100.0,-64.0,-81.0,-100.0,-83.0,-89.0,-100.0,-76.0,-76.0,-89.0,-91.0,-63.0,-72.0,-100.0,-100.0,-90.0,-100.0,-100.0,-72.0,-93.0,-100.0,-90.0,-100.0,-100.0,-90.0,-91.0,-92.0,-100.0,-100.0,-100.0,-100.0,-100.0,-100.0,-100.0,-100.0,-100.0,-100.0,-100.0,-100.0,-100.0,-100.0,-100.0,-100.0,-100.0,-100.0,-100.0,-100.0,-100.0,-100.0,-100.0,-100.0,-100.0,-100.0,-100.0,-100.0,-100.0,-100.0,-100.0,-100.0,-100.0,-100.0,-100.0,-100.0,-100.0,-100.0
2021.02.07 170248,50.0,19.0,-16.138947096491226,16.971578833333332,-20.265789201754384,-0.11419010662280701,0.22354965798596488,10.00101194736842,0.003446362321666666,-0.003461805386491228,0.00162040046122807,-0.02233421677323217,0.011419586359376148,0.7532986763276552,1012.1044881578947,-100.0,-100.0,-100.0,-91.0,-88.0,-57.0,-69.0,-100.0,-100.0,-100.0,-64.0,-81.0,-77.0,-86.0,-58.0,-81.0,-100.0,-77.0,-87.0,-72.0,-80.0,-64.0,-78.0,-100.0,-62.0,-92.0,-71.0,-82.0,-100.0,-87.0,-71.0,-82.0,-100.0,-100.0,-100.0,-100.0,-64.0,-61.0,-82.0,-70.0,-75.0,-100.0,-100.0,-80.0,-100.0,-82.0,-69.0,-82.0,-100.0,-100.0,-100.0,-63.0,-61.0,-81.0,-70.0,-76.0,-100.0,-100.0,-80.0,-100.0,-100.0,-59.0,-82.0,-100.0,-85.0,-100.0,-100.0,-82.0,-69.0,-100.0,-100.0,-66.0,-71.0,-100.0,-100.0,-100.0,-79.0,-91.0,-100.0,-100.0,-100.0,-100.0,-100.0,-100.0,-100.0,-86.0,-100.0,-88.0,-87.0,-84.0,-88.0,-89.0,-87.0,-84.0,-100.0,-100.0,-100.0,-100.0,-100.0,-100.0,-100.0,-100.0,-100.0,-100.0,-100.0,-100.0,-100.0,-100.0,-100.0,-100.0,-100.0,-100.0,-100.0,-100.0,-100.0,-100.0,-100.0,-100.0,-100.0,-100.0,-100.0,-100.0,-100.0,-100.0,-100.0
2021.02.07 170301,49.0,19.0,-18.898559735999996,-14.640959728000002,-26.456159712,-0.20929792599039995,0.41890232168,9.983283175999999,-0.00029749117351999914,-0.0011863002924800007,-0.00375315613632,-0.04191215729713436,0.021013120454852426,2.1805035915374757,1012.10570296,-100.0,-100.0,-100.0,-100.0,-91.0,-55.0,-70.0,-100.0,-100.0,-87.0,-74.0,-75.0,-76.0,-100.0,-68.0,-75.0,-100.0,-77.0,-100.0,-74.0,-82.0,-66.0,-80.0,-100.0,-65.0,-90.0,-64.0,-85.0,-100.0,-86.0,-63.0,-75.0,-85.0,-100.0,-100.0,-100.0,-53.0,-54.0,-76.0,-69.0,-73.0,-100.0,-100.0,-75.0,-81.0,-100.0,-63.0,-75.0,-85.0,-100.0,-100.0,-53.0,-54.0,-63.0,-69.0,-73.0,-100.0,-100.0,-74.0,-82.0,-100.0,-67.0,-75.0,-74.0,-82.0,-82.0,-100.0,-100.0,-69.0,-100.0,-100.0,-72.0,-78.0,-100.0,-100.0,-92.0,-79.0,-92.0,-100.0,-100.0,-100.0,-87.0,-100.0,-100.0,-90.0,-100.0,-100.0,-86.0,-86.0,-84.0,-100.0,-92.0,-85.0,-84.0,-81.0,-90.0,-85.0,-84.0,-100.0,-100.0,-100.0,-100.0,-100.0,-100.0,-100.0,-100.0,-100.0,-100.0,-100.0,-100.0,-100.0,-100.0,-100.0,-100.0,-100.0,-100.0,-100.0,-100.0,-100.0,-100.0,-100.0,-100.0,-100.0,-100.0,-100.0
2021.02.07 170314,48.0,19.0,8.7199997525,-23.11599975833333,-25.864499716666668,-0.23561659310833333,0.41299245300000004,9.988814725000001,-0.0005448918379166661,-0.0026140958813333343,-0.009193521934,-0.04128036680631335,0.023634172906167757,-2.790305326382319,1012.1012486666666,-100.0,-100.0,-100.0,-91.0,-100.0,-65.0,-68.0,-100.0,-100.0,-100.0,-78.0,-75.0,-74.0,-88.0,-79.0,-75.0,-100.0,-74.0,-88.0,-76.0,-90.0,-73.0,-73.0,-100.0,-60.0,-100.0,-64.0,-87.0,-80.0,-89.0,-74.0,-71.0,-100.0,-100.0,-100.0,-100.0,-60.0,-59.0,-79.0,-66.0,-73.0,-100.0,-100.0,-76.0,-88.0,-73.0,-73.0,-72.0,-100.0,-100.0,-100.0,-60.0,-59.0,-78.0,-66.0,-73.0,-100.0,-100.0,-84.0,-100.0,-100.0,-68.0,-82.0,-69.0,-82.0,-83.0,-100.0,-73.0,-77.0,-88.0,-87.0,-76.0,-80.0,-100.0,-93.0,-100.0,-77.0,-100.0,-86.0,-100.0,-100.0,-91.0,-100.0,-100.0,-100.0,-100.0,-100.0,-87.0,-86.0,-87.0,-100.0,-86.0,-87.0,-87.0,-100.0,-100.0,-89.0,-89.0,-88.0,-89.0,-100.0,-100.0,-100.0,-100.0,-100.0,-100.0,-100.0,-100.0,-100.0,-100.0,-100.0,-100.0,-100.0,-100.0,-100.0,-100.0,-100.0,-100.0,-100.0,-100.0,-100.0,-100.0,-100.0,-100.0,-100.0
2021.02.07 170327,48.0,18.0,6.074086858260869,-23.416173695652184,-27.92556483478261,-0.19660119062086961,0.47315034208695655,9.986894960869561,-0.0009625376221739129,0.00012063254939130459,-0.003999839368521739,-0.04732395038008687,0.019697657664832814,-2.8978294496950894,1012.1121428695654,-100.0,-100.0,-100.0,-100.0,-100.0,-57.0,-63.0,-100.0,-100.0,-89.0,-72.0,-85.0,-80.0,-100.0,-71.0,-84.0,-100.0,-80.0,-100.0,-73.0,-88.0,-76.0,-70.0,-100.0,-60.0,-100.0,-70.0,-85.0,-84.0,-83.0,-70.0,-73.0,-100.0,-100.0,-100.0,-100.0,-69.0,-70.0,-86.0,-67.0,-80.0,-100.0,-100.0,-100.0,-100.0,-79.0,-70.0,-73.0,-100.0,-100.0,-100.0,-66.0,-70.0,-87.0,-69.0,-79.0,-100.0,-100.0,-100.0,-100.0,-100.0,-100.0,-78.0,-100.0,-81.0,-83.0,-100.0,-79.0,-76.0,-90.0,-91.0,-73.0,-81.0,-100.0,-100.0,-100.0,-79.0,-100.0,-81.0,-100.0,-100.0,-90.0,-100.0,-100.0,-100.0,-100.0,-100.0,-88.0,-88.0,-100.0,-100.0,-100.0,-100.0,-100.0,-100.0,-100.0,-100.0,-100.0,-100.0,-100.0,-100.0,-100.0,-100.0,-100.0,-100.0,-100.0,-100.0,-100.0,-100.0,-100.0,-100.0,-100.0,-100.0,-100.0,-100.0,-100.0,-100.0,-100.0,-100.0,-100.0,-100.0,-100.0,-100.0,-100.0,-100.0
2021.02.07 170337,48.0,17.0,3.753214233928572,-26.506606857142856,-28.868570946428576,-0.1622762504017857,0.4934771446428572,9.987631892857141,0.0016193166452678571,-0.0015029030901785709,-0.0022841997317857147,-0.049344489858153096,0.01628069955040696,-3.012789302638599,1012.1517846428571,-100.0,-100.0,-100.0,-100.0,-100.0,-59.0,-73.0,-100.0,-100.0,-100.0,-73.0,-84.0,-81.0,-100.0,-73.0,-84.0,-100.0,-77.0,-100.0,-74.0,-89.0,-70.0,-71.0,-100.0,-60.0,-100.0,-67.0,-87.0,-84.0,-86.0,-68.0,-81.0,-100.0,-100.0,-100.0,-100.0,-69.0,-71.0,-85.0,-67.0,-80.0,-100.0,-100.0,-83.0,-100.0,-77.0,-68.0,-81.0,-87.0,-100.0,-100.0,-69.0,-70.0,-100.0,-67.0,-80.0,-100.0,-100.0,-82.0,-100.0,-100.0,-63.0,-82.0,-70.0,-83.0,-83.0,-100.0,-77.0,-76.0,-100.0,-100.0,-78.0,-78.0,-100.0,-100.0,-91.0,-85.0,-100.0,-77.0,-92.0,-100.0,-100.0,-100.0,-100.0,-100.0,-100.0,-100.0,-89.0,-88.0,-100.0,-100.0,-100.0,-100.0,-100.0,-100.0,-100.0,-100.0,-100.0,-100.0,-100.0,-100.0,-100.0,-100.0,-100.0,-100.0,-100.0,-100.0,-100.0,-100.0,-100.0,-100.0,-100.0,-100.0,-100.0,-100.0,-100.0,-100.0,-100.0,-100.0,-100.0,-100.0,-100.0,-100.0,-100.0,-100.0
2021.02.07 170351,48.0,16.0,2.970265446902655,-29.200884584070792,-30.333981831858406,-0.23599498024778762,0.45194585707964596,9.987240566371682,0.0016246258530973447,0.00012542726707964627,-0.00401224935938053,-0.045174629056611904,0.023689201907228535,-3.0615985034841353,1012.2148876106195,-100.0,-100.0,-100.0,-100.0,-100.0,-63.0,-64.0,-100.0,-100.0,-100.0,-80.0,-87.0,-82.0,-100.0,-80.0,-87.0,-100.0,-82.0,-100.0,-78.0,-85.0,-72.0,-76.0,-100.0,-55.0,-100.0,-67.0,-100.0,-82.0,-84.0,-74.0,-86.0,-100.0,-100.0,-100.0,-100.0,-65.0,-75.0,-80.0,-74.0,-85.0,-100.0,-100.0,-84.0,-100.0,-81.0,-62.0,-87.0,-100.0,-100.0,-100.0,-65.0,-75.0,-79.0,-73.0,-85.0,-100.0,-100.0,-84.0,-100.0,-100.0,-65.0,-81.0,-100.0,-100.0,-100.0,-100.0,-80.0,-83.0,-100.0,-100.0,-80.0,-82.0,-100.0,-94.0,-88.0,-81.0,-100.0,-77.0,-100.0,-100.0,-93.0,-100.0,-100.0,-85.0,-93.0,-100.0,-100.0,-100.0,-100.0,-100.0,-100.0,-100.0,-100.0,-84.0,-100.0,-100.0,-100.0,-100.0,-100.0,-100.0,-100.0,-100.0,-100.0,-100.0,-100.0,-100.0,-100.0,-100.0,-100.0,-100.0,-100.0,-100.0,-100.0,-100.0,-100.0,-100.0,-100.0,-100.0,-100.0,-100.0,-100.0,-100.0,-100.0,-100.0
2021.02.07 170401,48.0,15.0,2.17749996175,-31.266499549999995,-30.46649953333333,-0.218357862225,0.46993628691666667,9.998052670833333,0.0009720901066666669,-0.0010309369448333338,-0.005126177549499999,-0.04694165385638669,0.021855552455720757,-3.039255791902542,1012.2493468333334,-100.0,-100.0,-100.0,-100.0,-100.0,-65.0,-79.0,-100.0,-100.0,-86.0,-84.0,-88.0,-88.0,-100.0,-83.0,-88.0,-100.0,-88.0,-100.0,-79.0,-100.0,-73.0,-79.0,-100.0,-56.0,-91.0,-61.0,-83.0,-84.0,-85.0,-72.0,-88.0,-100.0,-100.0,-100.0,-100.0,-73.0,-72.0,-83.0,-70.0,-86.0,-100.0,-100.0,-87.0,-100.0,-82.0,-73.0,-88.0,-100.0,-100.0,-100.0,-73.0,-72.0,-83.0,-70.0,-86.0,-100.0,-100.0,-87.0,-100.0,-100.0,-64.0,-83.0,-72.0,-100.0,-100.0,-100.0,-82.0,-88.0,-100.0,-100.0,-77.0,-100.0,-100.0,-100.0,-100.0,-81.0,-100.0,-80.0,-100.0,-100.0,-100.0,-100.0,-100.0,-100.0,-100.0,-100.0,-100.0,-100.0,-100.0,-100.0,-100.0,-100.0,-100.0,-89.0,-100.0,-100.0,-100.0,-100.0,-100.0,-92.0,-100.0,-100.0,-100.0,-100.0,-100.0,-100.0,-100.0,-100.0,-100.0,-100.0,-100.0,-100.0,-100.0,-100.0,-100.0,-100.0,-100.0,-100.0,-100.0,-100.0,-100.0,-100.0,-100.0,-100.0
2021.02.07 170412,48.0,14.0,5.7009599456,-31.049759592000004,-29.93135964,-0.21056210364,0.40988069167999996,9.997648800000002,-0.00043432513888000016,-0.0015919147977599994,-0.00057176985992,-0.0409332720637321,0.021072434321045833,-2.973904396057129,1012.2857864000001,-100.0,-100.0,-100.0,-100.0,-100.0,-63.0,-74.0,-100.0,-100.0,-100.0,-83.0,-100.0,-84.0,-100.0,-83.0,-100.0,-100.0,-84.0,-100.0,-83.0,-84.0,-71.0,-74.0,-100.0,-61.0,-100.0,-69.0,-100.0,-83.0,-85.0,-81.0,-100.0,-100.0,-100.0,-100.0,-100.0,-69.0,-69.0,-78.0,-78.0,-89.0,-100.0,-100.0,-100.0,-100.0,-80.0,-81.0,-91.0,-100.0,-100.0,-100.0,-67.0,-69.0,-78.0,-79.0,-89.0,-100.0,-100.0,-100.0,-100.0,-100.0,-69.0,-80.0,-72.0,-100.0,-100.0,-100.0,-80.0,-100.0,-100.0,-100.0,-79.0,-100.0,-100.0,-100.0,-100.0,-85.0,-100.0,-100.0,-100.0,-100.0,-100.0,-100.0,-100.0,-100.0,-100.0,-100.0,-86.0,-87.0,-100.0,-100.0,-100.0,-100.0,-100.0,-100.0,-100.0,-100.0,-100.0,-100.0,-100.0,-100.0,-91.0,-90.0,-88.0,-100.0,-100.0,-100.0,-100.0,-100.0,-100.0,-100.0,-100.0,-100.0,-100.0,-100.0,-100.0,-100.0,-100.0,-100.0,-100.0,-100.0,-100.0,-100.0,-100.0,-100.0
2021.02.07 170424,48.0,13.0,7.576034346551723,-30.719999534482756,-31.79120662931034,-0.21934446862068963,0.42933888215517235,9.991845362068966,0.0024562472012931032,-0.002630596302586206,-0.003909537515344828,-0.04294429240940969,0.02198455818318597,-2.9122426509857178,1012.3232206896549,-100.0,-100.0,-100.0,-100.0,-100.0,-65.0,-73.0,-100.0,-100.0,-100.0,-85.0,-100.0,-88.0,-100.0,-84.0,-100.0,-100.0,-88.0,-100.0,-81.0,-87.0,-71.0,-79.0,-100.0,-62.0,-100.0,-69.0,-85.0,-100.0,-90.0,-82.0,-100.0,-100.0,-100.0,-100.0,-100.0,-66.0,-73.0,-79.0,-100.0,-100.0,-100.0,-100.0,-100.0,-100.0,-82.0,-82.0,-100.0,-100.0,-100.0,-100.0,-65.0,-73.0,-79.0,-100.0,-100.0,-100.0,-100.0,-100.0,-100.0,-100.0,-71.0,-100.0,-72.0,-100.0,-100.0,-100.0,-100.0,-100.0,-100.0,-100.0,-77.0,-86.0,-100.0,-100.0,-90.0,-88.0,-100.0,-80.0,-100.0,-100.0,-93.0,-100.0,-100.0,-78.0,-100.0,-100.0,-87.0,-88.0,-100.0,-100.0,-100.0,-100.0,-100.0,-100.0,-100.0,-100.0,-100.0,-100.0,-100.0,-100.0,-100.0,-100.0,-100.0,-87.0,-100.0,-100.0,-100.0,-100.0,-100.0,-100.0,-100.0,-100.0,-100.0,-100.0,-100.0,-100.0,-100.0,-100.0,-100.0,-100.0,-100.0,-100.0,-100.0,-100.0
2021.02.07 170435,49.0,13.0,23.440884654867258,-0.715752202300885,-31.74530936283186,-0.09930943348672565,0.39162284256637164,9.999275539823008,0.002030067287964602,-0.002718069265132743,-0.0014228295434513276,-0.039148809932238175,0.009944200162889284,-1.5460538526551912,1012.319669380531,-100.0,-100.0,-100.0,-100.0,-100.0,-62.0,-82.0,-100.0,-100.0,-100.0,-75.0,-100.0,-86.0,-100.0,-73.0,-100.0,-100.0,-86.0,-100.0,-83.0,-100.0,-74.0,-100.0,-100.0,-59.0,-100.0,-70.0,-100.0,-87.0,-88.0,-78.0,-92.0,-100.0,-100.0,-100.0,-100.0,-75.0,-70.0,-79.0,-72.0,-85.0,-100.0,-100.0,-100.0,-100.0,-86.0,-80.0,-100.0,-100.0,-100.0,-100.0,-76.0,-70.0,-100.0,-72.0,-85.0,-100.0,-100.0,-100.0,-100.0,-100.0,-71.0,-80.0,-77.0,-100.0,-100.0,-100.0,-86.0,-90.0,-100.0,-100.0,-80.0,-86.0,-100.0,-100.0,-100.0,-89.0,-100.0,-85.0,-100.0,-100.0,-92.0,-100.0,-87.0,-85.0,-100.0,-100.0,-100.0,-100.0,-100.0,-100.0,-100.0,-100.0,-100.0,-88.0,-100.0,-100.0,-100.0,-100.0,-100.0,-100.0,-100.0,-90.0,-100.0,-100.0,-87.0,-86.0,-87.0,-100.0,-100.0,-100.0,-100.0,-100.0,-100.0,-100.0,-100.0,-100.0,-100.0,-100.0,-100.0,-100.0,-100.0,-100.0,-100.0,-100.0
2021.02.07 170446,50.0,13.0,-1.5915789285087718,14.36578919736842,-28.22052597368421,-0.3217989347368421,0.4248157594736841,9.988053346491228,0.0014262203222807017,-0.0030438449473684207,-0.010870186294035087,-0.04247688273327389,0.032238858800969585,0.15451765952125324,1012.3283707894736,-100.0,-100.0,-100.0,-100.0,-100.0,-61.0,-71.0,-100.0,-100.0,-100.0,-76.0,-100.0,-84.0,-100.0,-75.0,-100.0,-100.0,-84.0,-100.0,-81.0,-100.0,-83.0,-82.0,-100.0,-63.0,-100.0,-75.0,-88.0,-100.0,-100.0,-73.0,-100.0,-100.0,-100.0,-100.0,-100.0,-68.0,-71.0,-71.0,-75.0,-82.0,-100.0,-100.0,-100.0,-100.0,-81.0,-73.0,-100.0,-100.0,-100.0,-100.0,-69.0,-71.0,-72.0,-75.0,-82.0,-100.0,-100.0,-100.0,-100.0,-100.0,-70.0,-85.0,-68.0,-100.0,-100.0,-100.0,-81.0,-91.0,-100.0,-100.0,-79.0,-100.0,-100.0,-100.0,-100.0,-92.0,-100.0,-100.0,-100.0,-100.0,-100.0,-100.0,-89.0,-100.0,-100.0,-100.0,-86.0,-85.0,-100.0,-100.0,-100.0,-100.0,-100.0,-100.0,-100.0,-100.0,-100.0,-100.0,-100.0,-100.0,-91.0,-100.0,-100.0,-100.0,-100.0,-100.0,-90.0,-86.0,-87.0,-100.0,-100.0,-100.0,-100.0,-100.0,-100.0,-100.0,-100.0,-100.0,-100.0,-100.0,-100.0,-100.0,-100.0,-100.0
2021.02.07 170456,50.0,14.0,-2.3144347430434786,14.555999647826084,-26.418260565217395,-0.1299154328347826,0.4257853400869565,9.985978834782607,0.0011409634079130435,-0.004548502703999999,6.374245999999997e-05,-0.04260721005823297,0.013078396170116595,0.1631914998913366,1012.3436830434781,-100.0,-100.0,-100.0,-100.0,-100.0,-68.0,-80.0,-100.0,-100.0,-100.0,-100.0,-100.0,-88.0,-100.0,-100.0,-100.0,-100.0,-88.0,-100.0,-69.0,-91.0,-80.0,-84.0,-100.0,-66.0,-100.0,-74.0,-92.0,-88.0,-90.0,-75.0,-91.0,-100.0,-100.0,-100.0,-100.0,-72.0,-68.0,-73.0,-100.0,-100.0,-100.0,-100.0,-100.0,-100.0,-79.0,-75.0,-92.0,-100.0,-100.0,-100.0,-73.0,-68.0,-73.0,-77.0,-100.0,-100.0,-100.0,-100.0,-100.0,-100.0,-68.0,-84.0,-75.0,-100.0,-100.0,-100.0,-79.0,-100.0,-100.0,-100.0,-80.0,-89.0,-100.0,-100.0,-90.0,-100.0,-100.0,-100.0,-100.0,-100.0,-100.0,-100.0,-89.0,-86.0,-100.0,-100.0,-83.0,-84.0,-100.0,-100.0,-100.0,-100.0,-100.0,-100.0,-100.0,-100.0,-100.0,-100.0,-100.0,-100.0,-100.0,-100.0,-100.0,-100.0,-100.0,-100.0,-89.0,-89.0,-88.0,-100.0,-100.0,-100.0,-100.0,-100.0,-100.0,-100.0,-100.0,-100.0,-100.0,-100.0,-100.0,-100.0,-100.0,-100.0
2021.02.07 170507,50.0,15.0,-1.403999981818182,15.717272422727271,-28.459090481818173,-0.07635559983454546,0.3074684168,10.000254640909093,0.0028690119870000007,0.0005216791023636369,-0.004570382735454546,-0.030699872403320897,0.007625184021556321,0.09377045178341423,1012.3856410909092,-100.0,-100.0,-100.0,-100.0,-100.0,-69.0,-81.0,-100.0,-100.0,-100.0,-90.0,-90.0,-100.0,-100.0,-82.0,-100.0,-100.0,-85.0,-100.0,-76.0,-100.0,-77.0,-86.0,-100.0,-68.0,-100.0,-75.0,-100.0,-84.0,-100.0,-82.0,-82.0,-100.0,-100.0,-100.0,-100.0,-70.0,-81.0,-73.0,-75.0,-88.0,-100.0,-100.0,-100.0,-100.0,-75.0,-82.0,-82.0,-100.0,-100.0,-100.0,-70.0,-81.0,-69.0,-75.0,-88.0,-100.0,-100.0,-100.0,-100.0,-100.0,-58.0,-88.0,-100.0,-100.0,-100.0,-100.0,-74.0,-86.0,-100.0,-100.0,-81.0,-100.0,-80.0,-100.0,-100.0,-100.0,-100.0,-87.0,-100.0,-100.0,-100.0,-100.0,-91.0,-88.0,-100.0,-100.0,-82.0,-83.0,-100.0,-100.0,-100.0,-100.0,-100.0,-100.0,-100.0,-100.0,-100.0,-100.0,-100.0,-100.0,-100.0,-100.0,-100.0,-100.0,-100.0,-100.0,-100.0,-100.0,-100.0,-83.0,-100.0,-100.0,-100.0,-100.0,-100.0,-100.0,-100.0,-100.0,-100.0,-100.0,-100.0,-100.0,-100.0,-100.0
2021.02.07 170517,50.0,16.0,-2.4254999711666665,17.883999783333334,-33.63049949166666,-0.15708437903166667,0.21664196448333334,10.019102383333331,0.0024279857469999993,-0.002130494299166666,-0.004617123128666667,-0.021624241954608155,0.01572396917290457,0.15409481435005243,1012.4333368333333,-100.0,-100.0,-100.0,-100.0,-100.0,-73.0,-81.0,-100.0,-100.0,-100.0,-80.0,-100.0,-87.0,-100.0,-79.0,-100.0,-100.0,-100.0,-100.0,-83.0,-100.0,-79.0,-100.0,-100.0,-70.0,-100.0,-78.0,-100.0,-100.0,-100.0,-80.0,-100.0,-100.0,-100.0,-100.0,-100.0,-72.0,-78.0,-65.0,-81.0,-88.0,-100.0,-100.0,-100.0,-100.0,-75.0,-79.0,-100.0,-100.0,-100.0,-100.0,-71.0,-79.0,-64.0,-80.0,-90.0,-100.0,-100.0,-100.0,-100.0,-100.0,-62.0,-100.0,-76.0,-100.0,-100.0,-100.0,-76.0,-100.0,-100.0,-100.0,-84.0,-100.0,-100.0,-100.0,-100.0,-90.0,-100.0,-100.0,-100.0,-100.0,-100.0,-100.0,-89.0,-100.0,-100.0,-100.0,-80.0,-80.0,-100.0,-100.0,-100.0,-100.0,-100.0,-92.0,-100.0,-100.0,-100.0,-100.0,-100.0,-100.0,-100.0,-100.0,-100.0,-100.0,-100.0,-100.0,-91.0,-82.0,-82.0,-86.0,-92.0,-100.0,-100.0,-100.0,-100.0,-100.0,-100.0,-100.0,-100.0,-100.0,-100.0,-100.0,-100.0,-100.0
2021.02.07 170528,50.0,17.0,-4.6526315114035075,15.81473659649123,-35.47789422807018,-0.11145979386666666,0.43712317394736844,9.996874482456139,0.0014905220245614035,-0.0010558537292982458,-0.0061922444409649125,-0.04364817403256888,0.011230347937446764,0.2791076978962672,1012.4802557894736,-100.0,-100.0,-100.0,-100.0,-100.0,-75.0,-79.0,-100.0,-100.0,-100.0,-82.0,-100.0,-89.0,-100.0,-82.0,-100.0,-100.0,-90.0,-100.0,-79.0,-90.0,-78.0,-100.0,-100.0,-66.0,-100.0,-77.0,-100.0,-100.0,-100.0,-80.0,-100.0,-100.0,-100.0,-100.0,-100.0,-73.0,-75.0,-70.0,-78.0,-100.0,-100.0,-100.0,-90.0,-100.0,-71.0,-80.0,-100.0,-100.0,-100.0,-100.0,-73.0,-75.0,-69.0,-78.0,-100.0,-100.0,-100.0,-91.0,-100.0,-100.0,-75.0,-88.0,-82.0,-100.0,-100.0,-100.0,-100.0,-100.0,-100.0,-100.0,-88.0,-100.0,-82.0,-100.0,-100.0,-100.0,-100.0,-100.0,-100.0,-100.0,-100.0,-100.0,-100.0,-84.0,-100.0,-100.0,-76.0,-76.0,-100.0,-100.0,-100.0,-100.0,-100.0,-93.0,-100.0,-100.0,-100.0,-100.0,-100.0,-100.0,-100.0,-100.0,-100.0,-100.0,-100.0,-100.0,-100.0,-81.0,-82.0,-82.0,-100.0,-100.0,-100.0,-100.0,-100.0,-100.0,-100.0,-100.0,-100.0,-100.0,-100.0,-100.0,-100.0,-100.0
2021.02.07 170538,50.0,18.0,-4.954999921296297,17.53333313888889,-33.28555500925926,-0.16325407175925927,0.4593238877777779,9.99909022222222,0.0015801272395370377,-0.0007781064662962949,-0.0034513885747222217,-0.045884235313645064,0.016361918545077958,0.27861350981725586,1012.5156044444445,-100.0,-100.0,-100.0,-100.0,-100.0,-70.0,-80.0,-100.0,-100.0,-100.0,-84.0,-100.0,-87.0,-100.0,-84.0,-100.0,-100.0,-87.0,-100.0,-78.0,-90.0,-82.0,-100.0,-100.0,-73.0,-100.0,-80.0,-100.0,-100.0,-100.0,-86.0,-100.0,-100.0,-100.0,-100.0,-100.0,-69.0,-77.0,-67.0,-74.0,-100.0,-100.0,-100.0,-91.0,-100.0,-68.0,-84.0,-100.0,-100.0,-100.0,-100.0,-68.0,-77.0,-67.0,-72.0,-100.0,-100.0,-100.0,-90.0,-100.0,-100.0,-72.0,-100.0,-82.0,-100.0,-100.0,-100.0,-68.0,-100.0,-100.0,-100.0,-87.0,-100.0,-85.0,-100.0,-91.0,-100.0,-100.0,-100.0,-100.0,-100.0,-100.0,-100.0,-100.0,-82.0,-93.0,-100.0,-74.0,-74.0,-100.0,-100.0,-100.0,-100.0,-100.0,-100.0,-100.0,-100.0,-100.0,-100.0,-100.0,-100.0,-100.0,-100.0,-100.0,-100.0,-100.0,-100.0,-100.0,-80.0,-80.0,-100.0,-100.0,-90.0,-91.0,-90.0,-92.0,-100.0,-100.0,-100.0,-100.0,-100.0,-100.0,-100.0,-100.0,-100.0
2021.02.07 170548,50.0,19.0,-5.9944536882352955,19.56403340336135,-32.21294078991597,-0.19280954187394958,0.4783922028571429,9.991228273109245,-0.0006810532624369756,-0.0024808009050420175,-0.004946468479831932,-0.047817696261556165,0.019331427919091378,0.30145491446767536,1012.5479855462183,-100.0,-100.0,-100.0,-100.0,-100.0,-73.0,-82.0,-100.0,-100.0,-100.0,-82.0,-100.0,-87.0,-100.0,-81.0,-100.0,-100.0,-87.0,-100.0,-84.0,-100.0,-80.0,-100.0,-100.0,-73.0,-100.0,-85.0,-100.0,-100.0,-100.0,-83.0,-100.0,-100.0,-100.0,-100.0,-100.0,-75.0,-77.0,-70.0,-65.0,-86.0,-100.0,-100.0,-100.0,-100.0,-67.0,-80.0,-100.0,-100.0,-100.0,-100.0,-100.0,-78.0,-69.0,-65.0,-87.0,-100.0,-100.0,-100.0,-100.0,-100.0,-75.0,-100.0,-85.0,-91.0,-100.0,-100.0,-100.0,-100.0,-100.0,-100.0,-89.0,-100.0,-85.0,-100.0,-100.0,-100.0,-100.0,-100.0,-100.0,-100.0,-100.0,-100.0,-100.0,-79.0,-100.0,-100.0,-72.0,-73.0,-100.0,-100.0,-100.0,-100.0,-100.0,-100.0,-100.0,-100.0,-100.0,-100.0,-100.0,-100.0,-100.0,-100.0,-100.0,-100.0,-100.0,-100.0,-100.0,-80.0,-80.0,-86.0,-100.0,-100.0,-88.0,-88.0,-100.0,-87.0,-90.0,-100.0,-100.0,-100.0,-100.0,-100.0,-100.0,-100.0
2021.02.07 170558,50.0,20.0,-8.068999801666667,21.405999800000004,-31.199999616666666,-0.06508437012833333,0.3240650955833333,9.991608070833335,0.002743599485416667,-0.002161037563333333,-0.005991569890666666,-0.03240854070366666,0.006518051039650619,0.3516676268229882,1012.5526279166666,-100.0,-100.0,-100.0,-100.0,-100.0,-73.0,-82.0,-100.0,-100.0,-100.0,-79.0,-100.0,-81.0,-100.0,-79.0,-100.0,-100.0,-80.0,-100.0,-90.0,-86.0,-79.0,-100.0,-100.0,-78.0,-100.0,-100.0,-100.0,-100.0,-100.0,-76.0,-88.0,-100.0,-100.0,-100.0,-100.0,-71.0,-79.0,-67.0,-67.0,-100.0,-100.0,-100.0,-100.0,-100.0,-67.0,-76.0,-87.0,-100.0,-100.0,-100.0,-70.0,-80.0,-66.0,-66.0,-100.0,-100.0,-100.0,-100.0,-100.0,-100.0,-70.0,-100.0,-100.0,-100.0,-100.0,-100.0,-68.0,-100.0,-100.0,-100.0,-85.0,-100.0,-78.0,-100.0,-100.0,-87.0,-100.0,-100.0,-100.0,-100.0,-100.0,-100.0,-88.0,-74.0,-100.0,-100.0,-69.0,-69.0,-100.0,-100.0,-100.0,-100.0,-100.0,-100.0,-100.0,-100.0,-100.0,-100.0,-100.0,-100.0,-83.0,-100.0,-100.0,-100.0,-100.0,-100.0,-88.0,-84.0,-84.0,-79.0,-100.0,-87.0,-100.0,-85.0,-100.0,-85.0,-90.0,-90.0,-90.0,-100.0,-100.0,-100.0,-100.0,-100.0
2021.02.07 170609,50.0,21.0,-5.443414563414633,21.480975406504065,-33.00292645528456,-0.044225954128455286,0.4392229011382114,9.995201837398373,-0.0014707499896747971,0.000122878340813008,-0.0059358222694308954,-0.043922765634772216,0.0044390899171802695,0.23673360413167535,1012.5555943089433,-100.0,-100.0,-100.0,-100.0,-100.0,-75.0,-79.0,-100.0,-100.0,-100.0,-77.0,-100.0,-82.0,-100.0,-77.0,-100.0,-100.0,-84.0,-100.0,-100.0,-100.0,-83.0,-100.0,-100.0,-83.0,-100.0,-100.0,-100.0,-100.0,-100.0,-68.0,-87.0,-100.0,-100.0,-100.0,-100.0,-69.0,-84.0,-65.0,-74.0,-100.0,-100.0,-100.0,-100.0,-100.0,-56.0,-68.0,-87.0,-100.0,-100.0,-100.0,-69.0,-84.0,-65.0,-74.0,-100.0,-100.0,-100.0,-100.0,-100.0,-100.0,-74.0,-100.0,-83.0,-100.0,-100.0,-100.0,-57.0,-100.0,-100.0,-100.0,-85.0,-100.0,-100.0,-100.0,-89.0,-100.0,-100.0,-89.0,-100.0,-100.0,-100.0,-100.0,-84.0,-73.0,-100.0,-100.0,-61.0,-62.0,-100.0,-100.0,-100.0,-100.0,-100.0,-100.0,-100.0,-100.0,-100.0,-100.0,-100.0,-100.0,-85.0,-100.0,-100.0,-100.0,-100.0,-100.0,-84.0,-74.0,-74.0,-80.0,-100.0,-100.0,-100.0,-80.0,-100.0,-80.0,-89.0,-100.0,-100.0,-82.0,-83.0,-82.0,-83.0,-89.0
