Timestamp,True_X,True_Y,Mean_Mag_x,Mean_Mag_y,Mean_Mag_z,Mean_Acc_x,Mean_Acc_y,Mean_Acc_z,Mean_Gyro_x,Mean_Gyro_y,Mean_Gyro_z,Mean_Orn_x,Mean_Orn_y,Mean_Orn_z,Mean_Pressure,00:1a:ab:a0:de:a2,00:1a:ab:a0:de:a4,00:1a:ac:a0:de:b7,00:1a:ac:a0:de:b8,00:1a:ac:a0:de:d3,00:1a:ac:a0:de:f6,00:1a:ac:a0:de:h4,00:1a:ac:a0:de:h7,00:1a:ac:a0:de:i2,00:1a:ac:a0:de:i8,00:1a:ac:a0:de:k7,00:1a:ac:a0:de:k8,00:1a:ac:a0:de:n8,00:1a:ac:a0:de:p3,00:1a:ac:a0:de:p5,00:1a:ac:a0:de:p6,00:1a:ac:a0:de:p7,00:1a:ac:a0:de:p8,00:1a:ac:a0:de:r1,00:1a:ac:a0:de:r2,00:1a:ac:a0:de:r5,00:1a:ac:a0:de:r6,00:1a:ac:a0:de:s2,00:1a:ac:a0:de:s3,00:1a:ac:a0:de:s4,00:1a:ac:a0:de:s5,00:1a:ac:a0:de:s6,00:1a:ac:a0:de:t7,00:1a:ac:a0:de:t9,00:1a:ac:a0:de:u2,00:1a:ac:a0:de:u3,00:1a:ac:a0:de:u4,00:1a:ac:a0:de:u5,00:1a:ac:a0:de:v7,00:1a:ac:a0:de:v8,00:1a:ac:a0:de:w2,00:1a:ac:a0:de:w3,00:1a:ac:a0:de:w8,00:1a:ac:a0:de:w9,00:1a:ac:a0:de:x1,f0:b0:52:6a:1f:cc,f0:b0:52:6a:20:c8,f0:b0:52:6a:20:cc,f4:28:53:71:29:24,fa:d0:27:36:de:a9,00:1a:ac:a0:de:f5,00:1a:ac:a0:de:m2,00:1a:ac:a0:de:n2,00:1a:ac:a0:de:r9,00:1a:ac:a0:de:s7,00:1a:ac:a0:de:t3,00:1a:ac:a0:de:t5,00:1a:ac:a0:de:b6,00:1a:ac:a0:de:g9,00:1a:ac:a0:de:i1,00:1a:ac:a0:de:m1,00:1a:ac:a0:de:p1,00:1a:ac:a0:de:p4,00:1a:ac:a0:de:s1,00:1a:ac:a0:de:u1,00:1a:ac:a0:de:w6,00:1a:ac:a0:de:w7,88:36:6c:95:5e:2e,00:1a:ac:a0:de:b3,00:1a:ac:a0:de:f7,00:1a:ac:a0:de:h6,00:1a:ac:a0:de:k2,00:1a:ac:a0:de:k9,00:1a:ac:a0:de:l9,00:1a:ac:a0:de:n6,00:1a:ab:a0:de:a1,00:1a:ac:a0:de:j7,00:1a:ac:a0:de:m3,00:1a:ac:a0:de:n4,00:1a:ac:a0:de:p2,00:1a:ac:a0:de:t1,00:1a:ac:a0:de:t8,86:25:19:04:e1:e0,00:1a:ac:a0:de:i3,00:1a:ac:a0:de:e8,00:1a:ac:a0:de:h3,00:1a:ac:a0:de:k4,00:1a:ac:a0:de:l5,00:1a:ac:a0:de:r3,00:1a:ab:a0:de:a7,00:1a:ac:a0:de:l1,00:1a:ac:a0:de:w4,00:1a:ac:a0:de:f3,00:1a:ac:a0:de:g8,00:1a:ac:a0:de:h9,00:1a:ac:a0:de:b2,00:1a:ac:a0:de:g2,00:1a:ac:a0:de:j9,00:1a:ac:a0:de:q4,00:1a:ac:a0:de:r7,00:1a:ac:a0:de:u8,00:1a:ac:a0:de:e9,00:1a:ac:a0:de:f8,00:1a:ac:a0:de:j8,00:1a:ac:a0:de:v9,00:1a:ab:a0:de:a9,00:1a:ac:a0:de:f2,00:1a:ac:a0:de:g5,00:1a:ac:a0:de:k6,00:1a:ac:a0:de:l2,00:1a:ac:a0:de:n9,00:1a:ac:a0:de:t6,00:1a:ac:a0:de:h2,00:1a:ac:a0:de:i9,00:1a:ac:a0:de:m4,00:1a:ac:a0:de:v1,00:1a:ac:a0:de:q2,00:1a:ac:a0:de:g1,00:1a:ac:a0:de:l7,00:1a:ac:a0:de:l8,00:1a:ac:a0:de:g7,00:1a:ac:a0:de:j6,90:9f:33:a4:06:5c,00:1a:ac:a0:de:n5,00:1a:ac:a0:de:b1,00:1a:ac:a0:de:k1,00:1a:ac:a0:de:t2,00:1a:ac:a0:de:f9,00:1a:ac:a0:de:n7,00:1a:ac:a0:de:t4,00:1a:ac:a0:de:b4,00:1a:ac:a0:de:j1,00:1a:ac:a0:de:i6,00:1a:ac:a0:de:r4,00:1a:ac:a0:de:w1,00:1a:ab:a0:de:a3,00:1a:ac:a0:de:h5,00:1a:ac:a0:de:q6,00:1a:ac:a0:de:v3,00:1a:ac:a0:de:i7,00:1a:ac:a0:de:j5,00:1a:ac:a0:de:k3,00:1a:ac:a0:de:l4,00:1a:ac:a0:de:r8,00:1a:ac:a0:de:w5,00:1a:ac:a0:de:f1,00:1a:ac:a0:de:j2,00:1a:ac:a0:de:c2,00:1a:ab:a0:de:a8,00:1a:ac:a0:de:m7,00:1a:ac:a0:de:q5,00:1a:ac:a0:de:v2,00:1a:ac:a0:de:s8,00:1a:ac:a0:de:m6,00:1a:ac:a0:de:m5,00:1a:ac:a0:de:p9,00:1a:ac:a0:de:u6,00:1a:ac:a0:de:b9,00:1a:ac:a0:de:q8,00:1a:ac:a0:de:v5,f0:b0:52:6a:26:78,00:1a:ac:a0:de:q3,00:1a:ac:a0:de:u9
2021.01.16 154046,1.0,27.0,29.45999960693642,-37.21803413872833,-18.200115433526012,-0.0816658047965318,0.8196334975722546,9.611432731213874,0.004833956865028902,-0.003184973743641619,0.0012994127627167632,-0.08507335823395344,0.008520542959900632,-2.4517797100750696,1015.8841973410407,-75.0,-70.0,-50.0,-92.0,-82.0,-91.0,-65.0,-85.0,-65.0,-54.0,-59.0,-80.0,-81.0,-70.0,-75.0,-73.0,-75.0,-85.0,-81.0,-88.0,-60.0,-63.0,-33.0,-48.0,-64.0,-80.0,-76.0,-83.0,-72.0,-74.0,-73.0,-74.0,-85.0,-82.0,-88.0,-61.0,-63.0,-33.0,-48.0,-65.0,-80.0,-78.0,-90.0,-70.0,-79.0,-100.0,-100.0,-100.0,-100.0,-100.0,-100.0,-100.0,-100.0,-100.0,-100.0,-100.0,-100.0,-100.0,-100.0,-100.0,-100.0,-100.0,-100.0,-100.0,-100.0,-100.0,-100.0,-100.0,-100.0,-100.0,-100.0,-100.0,-100.0,-100.0,-100.0,-100.0,-100.0,-100.0,-100.0,-100.0,-100.0,-100.0,-100.0,-100.0,-100.0,-100.0,-100.0,-100.0,-100.0,-100.0,-100.0,-100.0,-100.0,-100.0,-100.0,-100.0,-100.0,-100.0,-100.0,-100.0,-100.0,-100.0,-100.0,-100.0,-100.0,-100.0,-100.0,-100.0,-100.0,-100.0,-100.0,-100.0,-100.0,-100.0,-100.0,-100.0,-100.0,-100.0,-100.0,-100.0,-100.0,-100.0,-100.0,-100.0,-100.0,-100.0,-100.0,-100.0,-100.0,-100.0,-100.0,-100.0,-100.0,-100.0,-100.0,-100.0,-100.0,-100.0,-100.0,-100.0,-100.0,-100.0,-100.0,-100.0,-100.0,-100.0,-100.0,-100.0,-100.0,-100.0,-100.0,-100.0,-100.0,-100.0,-100.0,-100.0,-100.0,-100.0
2021.01.16 154105,1.0,26.0,3.7407953982954543,-30.953522335227273,-31.830340471590908,-0.1453661324755682,0.9545518942045454,9.610448014204547,0.0009683602315340909,-0.0027627768599431824,0.0021588532747159094,-0.09898469779132438,0.015120159508858828,-3.0245678289370104,1015.886943977273,-78.0,-100.0,-51.0,-81.0,-62.0,-90.0,-68.0,-81.0,-100.0,-51.0,-58.0,-80.0,-82.0,-60.0,-59.0,-72.0,-71.0,-89.0,-100.0,-89.0,-40.0,-57.0,-33.0,-55.0,-100.0,-71.0,-74.0,-100.0,-59.0,-60.0,-73.0,-70.0,-91.0,-100.0,-86.0,-40.0,-57.0,-33.0,-55.0,-100.0,-72.0,-74.0,-90.0,-68.0,-100.0,-80.0,-79.0,-81.0,-82.0,-91.0,-84.0,-85.0,-100.0,-100.0,-100.0,-100.0,-100.0,-100.0,-100.0,-100.0,-100.0,-100.0,-100.0,-100.0,-100.0,-100.0,-100.0,-100.0,-100.0,-100.0,-100.0,-100.0,-100.0,-100.0,-100.0,-100.0,-100.0,-100.0,-100.0,-100.0,-100.0,-100.0,-100.0,-100.0,-100.0,-100.0,-100.0,-100.0,-100.0,-100.0,-100.0,-100.0,-100.0,-100.0,-100.0,-100.0,-100.0,-100.0,-100.0,-100.0,-100.0,-100.0,-100.0,-100.0,-100.0,-100.0,-100.0,-100.0,-100.0,-100.0,-100.0,-100.0,-100.0,-100.0,-100.0,-100.0,-100.0,-100.0,-100.0,-100.0,-100.0,-100.0,-100.0,-100.0,-100.0,-100.0,-100.0,-100.0,-100.0,-100.0,-100.0,-100.0,-100.0,-100.0,-100.0,-100.0,-100.0,-100.0,-100.0,-100.0,-100.0,-100.0,-100.0,-100.0,-100.0,-100.0,-100.0,-100.0,-100.0,-100.0,-100.0,-100.0,-100.0,-100.0,-100.0,-100.0,-100.0,-100.0
2021.01.16 154122,1.0,25.0,-0.5927777614814815,-42.558610611111106,-33.90499954166666,-0.027533319513425924,1.0584145102314815,9.604196006944445,-0.00030543261388888933,0.002443460972453704,0.0004383523925925927,-0.10979354840323878,0.0028338195718370734,2.4255261056953006,1015.8959122222221,-100.0,-83.0,-58.0,-100.0,-81.0,-100.0,-60.0,-77.0,-100.0,-53.0,-62.0,-76.0,-67.0,-61.0,-56.0,-62.0,-69.0,-83.0,-100.0,-88.0,-39.0,-60.0,-37.0,-41.0,-54.0,-68.0,-76.0,-100.0,-61.0,-52.0,-61.0,-67.0,-83.0,-77.0,-88.0,-40.0,-59.0,-37.0,-41.0,-54.0,-69.0,-76.0,-84.0,-100.0,-100.0,-79.0,-70.0,-81.0,-76.0,-83.0,-84.0,-70.0,-74.0,-83.0,-90.0,-87.0,-75.0,-84.0,-88.0,-85.0,-76.0,-90.0,-90.0,-100.0,-100.0,-100.0,-100.0,-100.0,-100.0,-100.0,-100.0,-100.0,-100.0,-100.0,-100.0,-100.0,-100.0,-100.0,-100.0,-100.0,-100.0,-100.0,-100.0,-100.0,-100.0,-100.0,-100.0,-100.0,-100.0,-100.0,-100.0,-100.0,-100.0,-100.0,-100.0,-100.0,-100.0,-100.0,-100.0,-100.0,-100.0,-100.0,-100.0,-100.0,-100.0,-100.0,-100.0,-100.0,-100.0,-100.0,-100.0,-100.0,-100.0,-100.0,-100.0,-100.0,-100.0,-100.0,-100.0,-100.0,-100.0,-100.0,-100.0,-100.0,-100.0,-100.0,-100.0,-100.0,-100.0,-100.0,-100.0,-100.0,-100.0,-100.0,-100.0,-100.0,-100.0,-100.0,-100.0,-100.0,-100.0,-100.0,-100.0,-100.0,-100.0,-100.0,-100.0,-100.0,-100.0,-100.0,-100.0,-100.0,-100.0,-100.0,-100.0,-100.0,-100.0,-100.0
2021.01.16 154143,1.0,24.0,31.625929784883724,-3.8410464534883726,-36.49290659302326,-0.07898081697848837,0.8890422547093023,9.62101598255814,0.0018716626796511629,-0.0028980582531976744,0.0008772309694767442,-0.09216081095469549,0.008214409719288936,-1.584790197915809,1015.9167441860468,-100.0,-100.0,-51.0,-81.0,-71.0,-80.0,-58.0,-80.0,-71.0,-55.0,-61.0,-88.0,-100.0,-52.0,-48.0,-59.0,-62.0,-84.0,-62.0,-83.0,-35.0,-60.0,-31.0,-45.0,-100.0,-67.0,-53.0,-68.0,-53.0,-49.0,-59.0,-63.0,-84.0,-62.0,-84.0,-35.0,-61.0,-31.0,-45.0,-100.0,-66.0,-53.0,-75.0,-78.0,-100.0,-80.0,-77.0,-81.0,-75.0,-75.0,-69.0,-100.0,-84.0,-87.0,-100.0,-100.0,-69.0,-78.0,-90.0,-78.0,-74.0,-88.0,-100.0,-84.0,-83.0,-86.0,-80.0,-81.0,-84.0,-69.0,-100.0,-100.0,-100.0,-100.0,-100.0,-100.0,-100.0,-100.0,-100.0,-100.0,-100.0,-100.0,-100.0,-100.0,-100.0,-100.0,-100.0,-100.0,-100.0,-100.0,-100.0,-100.0,-100.0,-100.0,-100.0,-100.0,-100.0,-100.0,-100.0,-100.0,-100.0,-100.0,-100.0,-100.0,-100.0,-100.0,-100.0,-100.0,-100.0,-100.0,-100.0,-100.0,-100.0,-100.0,-100.0,-100.0,-100.0,-100.0,-100.0,-100.0,-100.0,-100.0,-100.0,-100.0,-100.0,-100.0,-100.0,-100.0,-100.0,-100.0,-100.0,-100.0,-100.0,-100.0,-100.0,-100.0,-100.0,-100.0,-100.0,-100.0,-100.0,-100.0,-100.0,-100.0,-100.0,-100.0,-100.0,-100.0,-100.0,-100.0,-100.0,-100.0,-100.0,-100.0,-100.0,-100.0,-100.0,-100.0
2021.01.16 154246,5.0,24.0,28.57595708510638,-11.416595454787233,-28.278510265957443,-0.16632060726808512,0.9305803540425532,9.636126922872341,0.0017968535505319145,-0.003155054131117021,4.8739324999999794e-05,-0.09626529682823949,0.01727249461196438,-1.8677826060893687,1015.9014991489362,-100.0,-100.0,-58.0,-100.0,-70.0,-100.0,-77.0,-82.0,-67.0,-100.0,-57.0,-82.0,-100.0,-62.0,-45.0,-56.0,-61.0,-75.0,-60.0,-71.0,-41.0,-54.0,-36.0,-36.0,-56.0,-65.0,-52.0,-66.0,-62.0,-45.0,-55.0,-61.0,-75.0,-100.0,-70.0,-41.0,-54.0,-35.0,-35.0,-56.0,-64.0,-52.0,-75.0,-100.0,-100.0,-77.0,-71.0,-100.0,-73.0,-76.0,-66.0,-100.0,-81.0,-82.0,-100.0,-100.0,-64.0,-82.0,-87.0,-82.0,-72.0,-85.0,-100.0,-100.0,-100.0,-87.0,-100.0,-84.0,-100.0,-65.0,-83.0,-82.0,-86.0,-78.0,-82.0,-82.0,-83.0,-90.0,-100.0,-100.0,-100.0,-100.0,-100.0,-100.0,-100.0,-100.0,-100.0,-100.0,-100.0,-100.0,-100.0,-100.0,-100.0,-100.0,-100.0,-100.0,-100.0,-100.0,-100.0,-100.0,-100.0,-100.0,-100.0,-100.0,-100.0,-100.0,-100.0,-100.0,-100.0,-100.0,-100.0,-100.0,-100.0,-100.0,-100.0,-100.0,-100.0,-100.0,-100.0,-100.0,-100.0,-100.0,-100.0,-100.0,-100.0,-100.0,-100.0,-100.0,-100.0,-100.0,-100.0,-100.0,-100.0,-100.0,-100.0,-100.0,-100.0,-100.0,-100.0,-100.0,-100.0,-100.0,-100.0,-100.0,-100.0,-100.0,-100.0,-100.0,-100.0,-100.0,-100.0,-100.0,-100.0,-100.0,-100.0,-100.0,-100.0,-100.0
2021.01.16 154318,7.0,24.0,25.71086676878613,-9.00034665433526,-29.87687819653179,-0.1103270284566474,1.0075022239306357,9.626213135838151,0.00396179651416185,-0.00036016335202312136,-0.001670169079190751,-0.10431634152383469,0.011462130557494659,-1.795731654745995,1015.907660115607,-100.0,-70.0,-45.0,-66.0,-68.0,-88.0,-63.0,-73.0,-100.0,-60.0,-54.0,-73.0,-69.0,-50.0,-37.0,-64.0,-54.0,-74.0,-53.0,-83.0,-40.0,-66.0,-22.0,-47.0,-59.0,-66.0,-50.0,-61.0,-50.0,-37.0,-66.0,-54.0,-74.0,-54.0,-84.0,-47.0,-68.0,-22.0,-48.0,-58.0,-67.0,-50.0,-75.0,-68.0,-100.0,-100.0,-64.0,-100.0,-72.0,-74.0,-100.0,-64.0,-100.0,-93.0,-100.0,-100.0,-61.0,-78.0,-100.0,-79.0,-71.0,-100.0,-100.0,-100.0,-100.0,-100.0,-100.0,-78.0,-100.0,-100.0,-80.0,-100.0,-83.0,-83.0,-100.0,-83.0,-100.0,-100.0,-77.0,-100.0,-100.0,-100.0,-100.0,-100.0,-100.0,-100.0,-100.0,-100.0,-100.0,-100.0,-100.0,-100.0,-100.0,-100.0,-100.0,-100.0,-100.0,-100.0,-100.0,-100.0,-100.0,-100.0,-100.0,-100.0,-100.0,-100.0,-100.0,-100.0,-100.0,-100.0,-100.0,-100.0,-100.0,-100.0,-100.0,-100.0,-100.0,-100.0,-100.0,-100.0,-100.0,-100.0,-100.0,-100.0,-100.0,-100.0,-100.0,-100.0,-100.0,-100.0,-100.0,-100.0,-100.0,-100.0,-100.0,-100.0,-100.0,-100.0,-100.0,-100.0,-100.0,-100.0,-100.0,-100.0,-100.0,-100.0,-100.0,-100.0,-100.0,-100.0,-100.0,-100.0,-100.0,-100.0,-100.0,-100.0,-100.0,-100.0
2021.01.16 154333,8.0,24.0,24.714999702380954,-4.928214201785714,-31.88249944642858,-0.19747888550595238,0.9081577562500001,9.643488127976191,-0.0005163265863095239,0.000527234807142857,0.00029452431636904755,-0.09389916780803881,0.02046209133030576,-1.6480961271694727,1015.914885,-78.0,-69.0,-49.0,-81.0,-59.0,-73.0,-60.0,-100.0,-64.0,-63.0,-45.0,-84.0,-66.0,-62.0,-40.0,-67.0,-58.0,-85.0,-54.0,-84.0,-55.0,-79.0,-36.0,-44.0,-55.0,-63.0,-56.0,-100.0,-63.0,-38.0,-68.0,-59.0,-86.0,-55.0,-84.0,-54.0,-80.0,-35.0,-44.0,-55.0,-64.0,-58.0,-75.0,-100.0,-100.0,-100.0,-63.0,-64.0,-71.0,-75.0,-100.0,-68.0,-81.0,-92.0,-100.0,-66.0,-100.0,-82.0,-90.0,-81.0,-68.0,-91.0,-100.0,-100.0,-100.0,-100.0,-100.0,-100.0,-100.0,-100.0,-100.0,-100.0,-85.0,-77.0,-88.0,-76.0,-87.0,-100.0,-100.0,-80.0,-68.0,-80.0,-81.0,-83.0,-100.0,-100.0,-100.0,-100.0,-100.0,-100.0,-100.0,-100.0,-100.0,-100.0,-100.0,-100.0,-100.0,-100.0,-100.0,-100.0,-100.0,-100.0,-100.0,-100.0,-100.0,-100.0,-100.0,-100.0,-100.0,-100.0,-100.0,-100.0,-100.0,-100.0,-100.0,-100.0,-100.0,-100.0,-100.0,-100.0,-100.0,-100.0,-100.0,-100.0,-100.0,-100.0,-100.0,-100.0,-100.0,-100.0,-100.0,-100.0,-100.0,-100.0,-100.0,-100.0,-100.0,-100.0,-100.0,-100.0,-100.0,-100.0,-100.0,-100.0,-100.0,-100.0,-100.0,-100.0,-100.0,-100.0,-100.0,-100.0,-100.0,-100.0,-100.0,-100.0,-100.0,-100.0
2021.01.16 154351,9.0,24.0,23.87749967261905,-3.143214239285715,-33.94571390476191,-0.2877887450535714,0.8122614227380954,9.647649470238095,0.001596249227380952,-0.002090758961011905,-0.0008253952624999999,-0.08396127474095136,0.029842099923241303,-1.5803121846346628,1015.9074479761905,-100.0,-66.0,-48.0,-84.0,-74.0,-84.0,-60.0,-100.0,-100.0,-100.0,-52.0,-78.0,-72.0,-50.0,-39.0,-66.0,-51.0,-81.0,-56.0,-80.0,-100.0,-78.0,-37.0,-53.0,-45.0,-66.0,-57.0,-58.0,-52.0,-39.0,-66.0,-51.0,-80.0,-52.0,-79.0,-100.0,-78.0,-38.0,-56.0,-45.0,-67.0,-57.0,-75.0,-100.0,-100.0,-78.0,-57.0,-100.0,-100.0,-75.0,-74.0,-72.0,-75.0,-88.0,-91.0,-82.0,-58.0,-88.0,-90.0,-86.0,-100.0,-91.0,-100.0,-78.0,-100.0,-100.0,-100.0,-100.0,-100.0,-75.0,-100.0,-100.0,-81.0,-79.0,-100.0,-80.0,-100.0,-100.0,-79.0,-100.0,-68.0,-100.0,-100.0,-100.0,-86.0,-86.0,-81.0,-100.0,-100.0,-100.0,-100.0,-100.0,-100.0,-100.0,-100.0,-100.0,-100.0,-100.0,-100.0,-100.0,-100.0,-100.0,-100.0,-100.0,-100.0,-100.0,-100.0,-100.0,-100.0,-100.0,-100.0,-100.0,-100.0,-100.0,-100.0,-100.0,-100.0,-100.0,-100.0,-100.0,-100.0,-100.0,-100.0,-100.0,-100.0,-100.0,-100.0,-100.0,-100.0,-100.0,-100.0,-100.0,-100.0,-100.0,-100.0,-100.0,-100.0,-100.0,-100.0,-100.0,-100.0,-100.0,-100.0,-100.0,-100.0,-100.0,-100.0,-100.0,-100.0,-100.0,-100.0,-100.0,-100.0,-100.0,-100.0,-100.0,-100.0,-100.0
2021.01.16 154501,13.0,24.0,23.935542497142855,-2.685942817142857,-38.23371384,-0.21926783157714283,0.8078446923999999,9.651861492,0.000795870064,-0.0014486233062857143,-0.005585053690571428,-0.0835343377079282,0.022523979169449593,-1.5464301122937885,1015.8711197714284,-100.0,-64.0,-47.0,-100.0,-73.0,-70.0,-52.0,-100.0,-58.0,-59.0,-58.0,-70.0,-70.0,-56.0,-42.0,-48.0,-56.0,-73.0,-57.0,-69.0,-58.0,-66.0,-42.0,-45.0,-53.0,-62.0,-54.0,-100.0,-56.0,-41.0,-48.0,-56.0,-75.0,-57.0,-69.0,-57.0,-67.0,-41.0,-46.0,-52.0,-62.0,-54.0,-71.0,-100.0,-100.0,-76.0,-61.0,-100.0,-71.0,-74.0,-70.0,-100.0,-74.0,-78.0,-87.0,-73.0,-60.0,-79.0,-80.0,-80.0,-72.0,-78.0,-100.0,-100.0,-100.0,-100.0,-100.0,-80.0,-100.0,-100.0,-100.0,-100.0,-76.0,-82.0,-83.0,-84.0,-81.0,-100.0,-100.0,-100.0,-73.0,-100.0,-100.0,-100.0,-100.0,-100.0,-100.0,-88.0,-88.0,-89.0,-100.0,-100.0,-100.0,-100.0,-100.0,-100.0,-100.0,-100.0,-100.0,-100.0,-100.0,-100.0,-100.0,-100.0,-100.0,-100.0,-100.0,-100.0,-100.0,-100.0,-100.0,-100.0,-100.0,-100.0,-100.0,-100.0,-100.0,-100.0,-100.0,-100.0,-100.0,-100.0,-100.0,-100.0,-100.0,-100.0,-100.0,-100.0,-100.0,-100.0,-100.0,-100.0,-100.0,-100.0,-100.0,-100.0,-100.0,-100.0,-100.0,-100.0,-100.0,-100.0,-100.0,-100.0,-100.0,-100.0,-100.0,-100.0,-100.0,-100.0,-100.0,-100.0,-100.0,-100.0,-100.0,-100.0,-100.0,-100.0
2021.01.16 154518,14.0,24.0,24.670940894117646,-2.0555293758823527,-36.13588200588236,-0.20532392001176472,0.9654547956470587,9.642957138235294,0.0061948922902941165,-0.0019547687879411767,-0.003269925734117647,-0.09980530848397924,0.021318059872068855,-1.503266369595247,1015.8522318823531,-74.0,-75.0,-48.0,-76.0,-74.0,-60.0,-50.0,-84.0,-50.0,-100.0,-59.0,-88.0,-100.0,-63.0,-31.0,-56.0,-45.0,-69.0,-57.0,-71.0,-60.0,-80.0,-51.0,-62.0,-52.0,-66.0,-45.0,-58.0,-64.0,-32.0,-55.0,-44.0,-68.0,-58.0,-71.0,-59.0,-80.0,-52.0,-62.0,-51.0,-67.0,-45.0,-77.0,-100.0,-100.0,-100.0,-59.0,-100.0,-71.0,-76.0,-66.0,-100.0,-79.0,-88.0,-90.0,-100.0,-58.0,-100.0,-86.0,-100.0,-71.0,-85.0,-100.0,-100.0,-100.0,-81.0,-79.0,-100.0,-100.0,-65.0,-79.0,-100.0,-73.0,-100.0,-90.0,-100.0,-88.0,-100.0,-100.0,-100.0,-56.0,-100.0,-100.0,-100.0,-100.0,-100.0,-84.0,-100.0,-100.0,-80.0,-81.0,-77.0,-72.0,-84.0,-83.0,-83.0,-100.0,-100.0,-100.0,-100.0,-100.0,-100.0,-100.0,-100.0,-100.0,-100.0,-100.0,-100.0,-100.0,-100.0,-100.0,-100.0,-100.0,-100.0,-100.0,-100.0,-100.0,-100.0,-100.0,-100.0,-100.0,-100.0,-100.0,-100.0,-100.0,-100.0,-100.0,-100.0,-100.0,-100.0,-100.0,-100.0,-100.0,-100.0,-100.0,-100.0,-100.0,-100.0,-100.0,-100.0,-100.0,-100.0,-100.0,-100.0,-100.0,-100.0,-100.0,-100.0,-100.0,-100.0,-100.0,-100.0,-100.0,-100.0,-100.0,-100.0,-100.0,-100.0
2021.01.16 154533,15.0,24.0,24.32891529518072,-0.28951806746987946,-34.18662611445783,-0.10368624062891567,0.7991729874096386,9.66115188253012,0.0011370925918674703,-0.00246554045,-0.0012438100237951812,-0.08257710695805316,0.010754833534364518,-1.4641848228063927,1015.8393759036143,-100.0,-58.0,-46.0,-73.0,-72.0,-60.0,-60.0,-100.0,-51.0,-100.0,-68.0,-100.0,-60.0,-64.0,-30.0,-47.0,-48.0,-57.0,-58.0,-68.0,-58.0,-78.0,-49.0,-55.0,-50.0,-54.0,-53.0,-61.0,-62.0,-30.0,-48.0,-49.0,-58.0,-59.0,-68.0,-60.0,-77.0,-49.0,-56.0,-50.0,-55.0,-53.0,-71.0,-100.0,-100.0,-63.0,-60.0,-66.0,-71.0,-72.0,-100.0,-59.0,-71.0,-79.0,-78.0,-100.0,-61.0,-100.0,-80.0,-100.0,-69.0,-82.0,-100.0,-100.0,-100.0,-72.0,-100.0,-77.0,-100.0,-69.0,-79.0,-100.0,-64.0,-81.0,-73.0,-80.0,-75.0,-100.0,-100.0,-100.0,-63.0,-100.0,-100.0,-100.0,-100.0,-100.0,-100.0,-100.0,-100.0,-100.0,-100.0,-100.0,-100.0,-100.0,-100.0,-100.0,-90.0,-79.0,-87.0,-87.0,-100.0,-100.0,-100.0,-100.0,-100.0,-100.0,-100.0,-100.0,-100.0,-100.0,-100.0,-100.0,-100.0,-100.0,-100.0,-100.0,-100.0,-100.0,-100.0,-100.0,-100.0,-100.0,-100.0,-100.0,-100.0,-100.0,-100.0,-100.0,-100.0,-100.0,-100.0,-100.0,-100.0,-100.0,-100.0,-100.0,-100.0,-100.0,-100.0,-100.0,-100.0,-100.0,-100.0,-100.0,-100.0,-100.0,-100.0,-100.0,-100.0,-100.0,-100.0,-100.0,-100.0,-100.0,-100.0,-100.0,-100.0,-100.0
2021.01.16 154604,17.0,24.0,23.30777112,-0.3037714191428571,-32.80388530285715,-0.25943569593142857,0.9374736183428571,9.638987557142856,0.0017976891085714289,-0.0017732545240000004,-0.0018675023280000005,-0.09693162202835079,0.026923922329608833,-1.440526760646275,1015.8107843428575,-100.0,-55.0,-44.0,-79.0,-100.0,-62.0,-70.0,-100.0,-49.0,-100.0,-71.0,-100.0,-58.0,-65.0,-34.0,-49.0,-38.0,-57.0,-55.0,-72.0,-56.0,-79.0,-54.0,-66.0,-42.0,-55.0,-50.0,-59.0,-63.0,-33.0,-49.0,-39.0,-57.0,-56.0,-73.0,-61.0,-80.0,-54.0,-66.0,-43.0,-57.0,-50.0,-73.0,-74.0,-100.0,-62.0,-69.0,-71.0,-71.0,-74.0,-63.0,-62.0,-74.0,-91.0,-85.0,-62.0,-60.0,-100.0,-86.0,-100.0,-74.0,-87.0,-100.0,-100.0,-100.0,-82.0,-100.0,-74.0,-100.0,-63.0,-100.0,-100.0,-100.0,-100.0,-88.0,-82.0,-87.0,-100.0,-100.0,-100.0,-65.0,-100.0,-80.0,-100.0,-100.0,-100.0,-100.0,-83.0,-100.0,-78.0,-100.0,-100.0,-71.0,-100.0,-84.0,-100.0,-100.0,-83.0,-100.0,-100.0,-81.0,-80.0,-76.0,-81.0,-60.0,-91.0,-89.0,-100.0,-100.0,-100.0,-100.0,-100.0,-100.0,-100.0,-100.0,-100.0,-100.0,-100.0,-100.0,-100.0,-100.0,-100.0,-100.0,-100.0,-100.0,-100.0,-100.0,-100.0,-100.0,-100.0,-100.0,-100.0,-100.0,-100.0,-100.0,-100.0,-100.0,-100.0,-100.0,-100.0,-100.0,-100.0,-100.0,-100.0,-100.0,-100.0,-100.0,-100.0,-100.0,-100.0,-100.0,-100.0,-100.0,-100.0,-100.0,-100.0,-100.0,-100.0
2021.01.16 154704,21.0,24.0,31.591647994505497,-0.4130769117032968,-36.51626323626373,-0.23352675012252747,1.0835078354945056,9.620165491758243,0.0034033921076923076,-0.0012250869060439562,-0.0021480975527472523,-0.11213723369515856,0.024276409500309185,-1.4488001197249025,1015.7443758241758,-81.0,-57.0,-57.0,-89.0,-79.0,-60.0,-100.0,-100.0,-47.0,-79.0,-75.0,-100.0,-59.0,-69.0,-27.0,-43.0,-36.0,-50.0,-55.0,-69.0,-71.0,-83.0,-56.0,-70.0,-39.0,-59.0,-48.0,-57.0,-69.0,-27.0,-45.0,-36.0,-50.0,-54.0,-69.0,-69.0,-82.0,-56.0,-70.0,-38.0,-59.0,-47.0,-73.0,-79.0,-100.0,-69.0,-66.0,-100.0,-63.0,-74.0,-60.0,-56.0,-86.0,-92.0,-73.0,-63.0,-56.0,-100.0,-87.0,-100.0,-62.0,-87.0,-100.0,-73.0,-100.0,-71.0,-100.0,-66.0,-100.0,-63.0,-83.0,-80.0,-100.0,-73.0,-88.0,-75.0,-86.0,-100.0,-100.0,-69.0,-63.0,-100.0,-100.0,-100.0,-100.0,-100.0,-100.0,-77.0,-100.0,-76.0,-100.0,-100.0,-72.0,-100.0,-100.0,-100.0,-100.0,-87.0,-100.0,-100.0,-100.0,-100.0,-100.0,-81.0,-100.0,-84.0,-84.0,-80.0,-83.0,-83.0,-100.0,-100.0,-100.0,-100.0,-100.0,-100.0,-100.0,-100.0,-100.0,-100.0,-100.0,-100.0,-100.0,-100.0,-100.0,-100.0,-100.0,-100.0,-100.0,-100.0,-100.0,-100.0,-100.0,-100.0,-100.0,-100.0,-100.0,-100.0,-100.0,-100.0,-100.0,-100.0,-100.0,-100.0,-100.0,-100.0,-100.0,-100.0,-100.0,-100.0,-100.0,-100.0,-100.0,-100.0,-100.0,-100.0,-100.0,-100.0
2021.01.16 154720,22.0,24.0,33.06877149122807,0.6175438458479532,-38.839648555555556,-0.2833138676023392,1.0969504280701754,9.623738722222223,0.0031472063345029245,-0.0006251545453216374,0.0003250803441520471,-0.11346417722123404,0.02943594760822444,-1.4115331012603136,1015.7310483040935,-100.0,-58.0,-53.0,-100.0,-100.0,-69.0,-100.0,-100.0,-43.0,-100.0,-73.0,-100.0,-60.0,-75.0,-39.0,-45.0,-52.0,-65.0,-52.0,-73.0,-69.0,-88.0,-58.0,-73.0,-38.0,-61.0,-48.0,-57.0,-73.0,-39.0,-46.0,-52.0,-63.0,-52.0,-72.0,-70.0,-88.0,-59.0,-73.0,-40.0,-62.0,-48.0,-71.0,-100.0,-100.0,-65.0,-100.0,-63.0,-72.0,-71.0,-72.0,-61.0,-100.0,-87.0,-70.0,-68.0,-56.0,-100.0,-84.0,-100.0,-72.0,-83.0,-100.0,-67.0,-100.0,-74.0,-76.0,-65.0,-100.0,-100.0,-100.0,-100.0,-100.0,-68.0,-85.0,-69.0,-87.0,-100.0,-100.0,-76.0,-55.0,-100.0,-100.0,-100.0,-100.0,-100.0,-100.0,-78.0,-100.0,-72.0,-100.0,-100.0,-81.0,-83.0,-100.0,-100.0,-89.0,-78.0,-100.0,-100.0,-100.0,-80.0,-79.0,-80.0,-57.0,-82.0,-81.0,-80.0,-100.0,-100.0,-84.0,-100.0,-100.0,-100.0,-100.0,-100.0,-100.0,-100.0,-100.0,-100.0,-100.0,-100.0,-100.0,-100.0,-100.0,-100.0,-100.0,-100.0,-100.0,-100.0,-100.0,-100.0,-100.0,-100.0,-100.0,-100.0,-100.0,-100.0,-100.0,-100.0,-100.0,-100.0,-100.0,-100.0,-100.0,-100.0,-100.0,-100.0,-100.0,-100.0,-100.0,-100.0,-100.0,-100.0,-100.0,-100.0,-100.0,-100.0
2021.01.16 154735,23.0,24.0,33.27635241764706,-2.1532940795294118,-40.70647008235294,-0.35414468342941174,1.0605468634705881,9.621930467647058,0.0032124325667647062,-0.001681676022647059,-0.001958362041764706,-0.10974747288753,0.03682684075457095,-1.4935869041611167,1015.7201734117647,-100.0,-100.0,-71.0,-100.0,-100.0,-100.0,-77.0,-100.0,-39.0,-100.0,-100.0,-100.0,-55.0,-79.0,-29.0,-41.0,-56.0,-77.0,-100.0,-71.0,-100.0,-87.0,-61.0,-73.0,-36.0,-59.0,-46.0,-48.0,-79.0,-28.0,-48.0,-56.0,-77.0,-100.0,-71.0,-100.0,-87.0,-61.0,-72.0,-37.0,-59.0,-47.0,-76.0,-81.0,-100.0,-65.0,-68.0,-72.0,-69.0,-75.0,-68.0,-55.0,-100.0,-100.0,-74.0,-65.0,-48.0,-100.0,-81.0,-100.0,-70.0,-82.0,-100.0,-66.0,-100.0,-68.0,-100.0,-67.0,-100.0,-65.0,-73.0,-100.0,-100.0,-74.0,-83.0,-74.0,-82.0,-100.0,-100.0,-57.0,-57.0,-100.0,-78.0,-82.0,-100.0,-100.0,-100.0,-77.0,-100.0,-77.0,-100.0,-73.0,-100.0,-100.0,-100.0,-81.0,-83.0,-75.0,-100.0,-100.0,-81.0,-80.0,-100.0,-100.0,-51.0,-83.0,-82.0,-79.0,-76.0,-100.0,-100.0,-81.0,-100.0,-100.0,-100.0,-100.0,-100.0,-100.0,-100.0,-100.0,-100.0,-100.0,-100.0,-100.0,-100.0,-100.0,-100.0,-100.0,-100.0,-100.0,-100.0,-100.0,-100.0,-100.0,-100.0,-100.0,-100.0,-100.0,-100.0,-100.0,-100.0,-100.0,-100.0,-100.0,-100.0,-100.0,-100.0,-100.0,-100.0,-100.0,-100.0,-100.0,-100.0,-100.0,-100.0,-100.0,-100.0,-100.0
2021.01.16 154813,25.0,24.0,32.30440626553672,-1.3596609894915255,-40.05457570621469,-0.22780085296271185,0.9446275446892656,9.642735220338983,0.0010215599587570618,0.0012389864802259884,0.0003382192016949154,-0.09762404025611227,0.02362668923185187,-1.487170695585046,1015.7002755932202,-100.0,-58.0,-70.0,-100.0,-100.0,-73.0,-100.0,-100.0,-48.0,-100.0,-76.0,-100.0,-55.0,-74.0,-36.0,-43.0,-59.0,-78.0,-57.0,-67.0,-74.0,-84.0,-61.0,-66.0,-39.0,-60.0,-48.0,-63.0,-74.0,-36.0,-43.0,-58.0,-79.0,-56.0,-67.0,-73.0,-83.0,-60.0,-67.0,-39.0,-59.0,-48.0,-67.0,-100.0,-100.0,-100.0,-100.0,-69.0,-63.0,-66.0,-69.0,-54.0,-88.0,-67.0,-68.0,-100.0,-65.0,-100.0,-78.0,-100.0,-63.0,-77.0,-100.0,-68.0,-61.0,-100.0,-100.0,-61.0,-100.0,-70.0,-100.0,-100.0,-100.0,-77.0,-67.0,-76.0,-67.0,-100.0,-100.0,-57.0,-51.0,-100.0,-100.0,-100.0,-83.0,-100.0,-100.0,-100.0,-90.0,-66.0,-100.0,-100.0,-72.0,-100.0,-100.0,-100.0,-76.0,-69.0,-84.0,-100.0,-100.0,-100.0,-100.0,-100.0,-52.0,-77.0,-78.0,-71.0,-72.0,-100.0,-100.0,-100.0,-100.0,-100.0,-100.0,-100.0,-100.0,-100.0,-100.0,-100.0,-100.0,-100.0,-100.0,-100.0,-100.0,-100.0,-100.0,-100.0,-100.0,-100.0,-100.0,-100.0,-100.0,-100.0,-100.0,-100.0,-100.0,-100.0,-100.0,-100.0,-100.0,-100.0,-100.0,-100.0,-100.0,-100.0,-100.0,-100.0,-100.0,-100.0,-100.0,-100.0,-100.0,-100.0,-100.0,-100.0,-100.0,-100.0
2021.01.16 154906,27.0,24.0,29.967765494680847,0.6772340269148935,-34.07297831914894,-0.39360421354468084,1.417902280851064,9.594877936170212,0.0039023892603723396,-0.0011567448723404255,-0.0011177534409574472,-0.1465946045565478,0.040944132948463906,-1.3694272865640356,1015.645932606383,-100.0,-68.0,-68.0,-100.0,-100.0,-66.0,-76.0,-100.0,-50.0,-100.0,-79.0,-100.0,-66.0,-73.0,-43.0,-58.0,-61.0,-82.0,-59.0,-72.0,-67.0,-87.0,-59.0,-73.0,-35.0,-51.0,-55.0,-59.0,-75.0,-43.0,-59.0,-60.0,-82.0,-59.0,-72.0,-67.0,-88.0,-59.0,-73.0,-34.0,-50.0,-54.0,-67.0,-100.0,-100.0,-100.0,-100.0,-100.0,-64.0,-67.0,-64.0,-66.0,-100.0,-75.0,-81.0,-100.0,-58.0,-100.0,-80.0,-100.0,-68.0,-80.0,-100.0,-71.0,-100.0,-65.0,-100.0,-63.0,-100.0,-66.0,-74.0,-71.0,-100.0,-69.0,-75.0,-70.0,-76.0,-100.0,-100.0,-58.0,-49.0,-100.0,-81.0,-100.0,-80.0,-100.0,-81.0,-71.0,-100.0,-75.0,-100.0,-100.0,-100.0,-100.0,-80.0,-100.0,-79.0,-67.0,-100.0,-100.0,-80.0,-70.0,-77.0,-100.0,-58.0,-86.0,-86.0,-74.0,-80.0,-100.0,-100.0,-100.0,-82.0,-73.0,-87.0,-100.0,-100.0,-100.0,-100.0,-100.0,-100.0,-100.0,-100.0,-100.0,-100.0,-100.0,-100.0,-100.0,-100.0,-100.0,-100.0,-100.0,-100.0,-100.0,-100.0,-100.0,-100.0,-100.0,-100.0,-100.0,-100.0,-100.0,-100.0,-100.0,-100.0,-100.0,-100.0,-100.0,-100.0,-100.0,-100.0,-100.0,-100.0,-100.0,-100.0,-100.0,-100.0,-100.0
2021.01.16 154921,28.0,24.0,28.320336707865167,2.927190967977528,-31.467640129213486,-0.31416499415730337,1.0193784539887643,9.635168758426966,0.0045471711328651685,-0.001537458696910112,-0.002645938801123596,-0.10534015272775389,0.032655154260691585,-1.3430422678422391,1015.6426906741574,-100.0,-72.0,-76.0,-100.0,-100.0,-82.0,-100.0,-100.0,-55.0,-100.0,-100.0,-100.0,-59.0,-100.0,-44.0,-59.0,-63.0,-86.0,-58.0,-79.0,-75.0,-89.0,-65.0,-74.0,-31.0,-46.0,-43.0,-52.0,-100.0,-44.0,-59.0,-61.0,-84.0,-59.0,-80.0,-73.0,-88.0,-65.0,-75.0,-31.0,-45.0,-43.0,-63.0,-100.0,-100.0,-76.0,-100.0,-79.0,-64.0,-64.0,-100.0,-60.0,-100.0,-72.0,-88.0,-100.0,-53.0,-100.0,-78.0,-100.0,-65.0,-78.0,-100.0,-48.0,-100.0,-62.0,-69.0,-100.0,-100.0,-100.0,-64.0,-100.0,-100.0,-100.0,-69.0,-100.0,-70.0,-100.0,-100.0,-47.0,-50.0,-77.0,-100.0,-100.0,-100.0,-100.0,-100.0,-55.0,-100.0,-75.0,-83.0,-83.0,-81.0,-100.0,-100.0,-100.0,-71.0,-87.0,-100.0,-100.0,-100.0,-81.0,-100.0,-100.0,-100.0,-100.0,-100.0,-70.0,-100.0,-100.0,-100.0,-100.0,-100.0,-100.0,-100.0,-63.0,-70.0,-100.0,-100.0,-100.0,-100.0,-100.0,-100.0,-100.0,-100.0,-100.0,-100.0,-100.0,-100.0,-100.0,-100.0,-100.0,-100.0,-100.0,-100.0,-100.0,-100.0,-100.0,-100.0,-100.0,-100.0,-100.0,-100.0,-100.0,-100.0,-100.0,-100.0,-100.0,-100.0,-100.0,-100.0,-100.0,-100.0,-100.0,-100.0,-100.0,-100.0,-100.0
2021.01.16 154937,29.0,24.0,28.614269370786516,2.37168535505618,-29.789662533707865,-0.23231826758426966,0.9406926103370786,9.648969061797754,-0.0016438452264044942,-0.0019664368887640452,-0.002168914800280899,-0.09722310513927691,0.02413418555888605,-1.38222492209981,1015.6290026966292,-100.0,-100.0,-77.0,-100.0,-100.0,-79.0,-100.0,-100.0,-56.0,-100.0,-100.0,-100.0,-63.0,-100.0,-52.0,-65.0,-62.0,-82.0,-52.0,-72.0,-68.0,-100.0,-55.0,-71.0,-34.0,-44.0,-45.0,-50.0,-100.0,-52.0,-64.0,-64.0,-83.0,-51.0,-74.0,-67.0,-89.0,-54.0,-72.0,-35.0,-44.0,-44.0,-68.0,-100.0,-100.0,-100.0,-100.0,-71.0,-59.0,-67.0,-63.0,-62.0,-100.0,-65.0,-87.0,-100.0,-52.0,-100.0,-81.0,-100.0,-59.0,-83.0,-100.0,-60.0,-100.0,-59.0,-72.0,-72.0,-100.0,-64.0,-70.0,-100.0,-100.0,-100.0,-70.0,-100.0,-68.0,-100.0,-100.0,-60.0,-53.0,-77.0,-100.0,-100.0,-78.0,-58.0,-77.0,-63.0,-100.0,-76.0,-76.0,-100.0,-100.0,-100.0,-78.0,-81.0,-73.0,-91.0,-90.0,-100.0,-100.0,-77.0,-79.0,-69.0,-66.0,-87.0,-86.0,-100.0,-100.0,-100.0,-82.0,-82.0,-100.0,-100.0,-100.0,-75.0,-71.0,-85.0,-100.0,-100.0,-100.0,-100.0,-100.0,-100.0,-100.0,-100.0,-100.0,-100.0,-100.0,-100.0,-100.0,-100.0,-100.0,-100.0,-100.0,-100.0,-100.0,-100.0,-100.0,-100.0,-100.0,-100.0,-100.0,-100.0,-100.0,-100.0,-100.0,-100.0,-100.0,-100.0,-100.0,-100.0,-100.0,-100.0,-100.0,-100.0,-100.0,-100.0
2021.01.16 155024,32.0,24.0,34.21085668095238,-0.2094285648095238,-33.468571009523814,-0.16003528211571424,0.7513004899523811,9.675288195238096,0.002626720609285714,-0.0016784250166666668,-0.0036244671119047616,-0.07751697669071807,0.01656422935983361,-1.4987298437527248,1015.6347251428571,-100.0,-100.0,-75.0,-100.0,-100.0,-100.0,-83.0,-100.0,-60.0,-100.0,-100.0,-100.0,-100.0,-79.0,-51.0,-65.0,-66.0,-100.0,-50.0,-72.0,-100.0,-92.0,-57.0,-76.0,-28.0,-45.0,-45.0,-50.0,-80.0,-51.0,-67.0,-65.0,-100.0,-50.0,-72.0,-100.0,-100.0,-56.0,-75.0,-28.0,-46.0,-44.0,-74.0,-100.0,-100.0,-100.0,-100.0,-100.0,-61.0,-73.0,-100.0,-100.0,-100.0,-72.0,-89.0,-100.0,-52.0,-100.0,-79.0,-100.0,-57.0,-79.0,-100.0,-59.0,-100.0,-68.0,-63.0,-76.0,-100.0,-100.0,-64.0,-100.0,-100.0,-66.0,-64.0,-100.0,-64.0,-100.0,-100.0,-55.0,-52.0,-100.0,-100.0,-100.0,-100.0,-100.0,-79.0,-75.0,-100.0,-75.0,-75.0,-100.0,-100.0,-82.0,-76.0,-100.0,-100.0,-100.0,-90.0,-100.0,-82.0,-100.0,-75.0,-100.0,-62.0,-100.0,-100.0,-100.0,-100.0,-100.0,-84.0,-100.0,-100.0,-100.0,-92.0,-100.0,-71.0,-100.0,-100.0,-100.0,-100.0,-100.0,-100.0,-100.0,-100.0,-100.0,-100.0,-100.0,-100.0,-100.0,-100.0,-100.0,-100.0,-100.0,-100.0,-100.0,-100.0,-100.0,-100.0,-100.0,-100.0,-100.0,-100.0,-100.0,-100.0,-100.0,-100.0,-100.0,-100.0,-100.0,-100.0,-100.0,-100.0,-100.0,-100.0,-100.0,-100.0,-100.0
2021.01.16 155110,35.0,24.0,33.53215878409091,-10.600567946022727,-33.29897689772727,-0.0873475516659091,0.7584041966477273,9.658903417613637,0.0019158956267045458,-0.00020477861619318146,-0.003241750863352273,-0.07836164817722002,0.009051037913608987,-1.8052651062607765,1015.6446488636363,-100.0,-100.0,-78.0,-100.0,-100.0,-100.0,-100.0,-100.0,-100.0,-100.0,-100.0,-100.0,-100.0,-76.0,-59.0,-66.0,-100.0,-88.0,-51.0,-72.0,-100.0,-100.0,-65.0,-77.0,-24.0,-41.0,-100.0,-38.0,-75.0,-59.0,-67.0,-100.0,-90.0,-50.0,-72.0,-100.0,-100.0,-64.0,-77.0,-24.0,-41.0,-100.0,-62.0,-100.0,-100.0,-100.0,-85.0,-82.0,-100.0,-62.0,-67.0,-100.0,-100.0,-61.0,-91.0,-82.0,-38.0,-100.0,-73.0,-100.0,-100.0,-74.0,-100.0,-58.0,-100.0,-100.0,-62.0,-100.0,-68.0,-64.0,-100.0,-100.0,-100.0,-100.0,-60.0,-100.0,-59.0,-100.0,-100.0,-100.0,-41.0,-77.0,-100.0,-100.0,-80.0,-100.0,-100.0,-100.0,-92.0,-100.0,-74.0,-100.0,-100.0,-100.0,-100.0,-100.0,-100.0,-100.0,-100.0,-100.0,-100.0,-100.0,-74.0,-81.0,-51.0,-100.0,-100.0,-100.0,-100.0,-100.0,-100.0,-100.0,-100.0,-100.0,-89.0,-100.0,-100.0,-100.0,-91.0,-100.0,-100.0,-100.0,-100.0,-100.0,-100.0,-100.0,-100.0,-100.0,-100.0,-100.0,-100.0,-100.0,-100.0,-100.0,-100.0,-100.0,-100.0,-100.0,-100.0,-100.0,-100.0,-100.0,-100.0,-100.0,-100.0,-100.0,-100.0,-100.0,-100.0,-100.0,-100.0,-100.0,-100.0,-100.0,-100.0,-100.0,-100.0,-100.0
2021.01.16 155142,36.0,24.0,29.273447942528726,-10.24862049137931,-30.928964994252865,-0.07300939233160919,0.8150192774712643,9.669809080459771,0.0011971555198275862,-0.0010321516956896552,1.5229884881964383e-11,-0.08408086224534042,0.0075656180267905625,-1.8266393199734303,1015.6010475287355,-100.0,-100.0,-83.0,-100.0,-100.0,-100.0,-100.0,-100.0,-72.0,-100.0,-100.0,-100.0,-100.0,-80.0,-52.0,-64.0,-100.0,-87.0,-46.0,-76.0,-66.0,-89.0,-100.0,-74.0,-39.0,-54.0,-100.0,-38.0,-80.0,-51.0,-64.0,-100.0,-86.0,-46.0,-77.0,-68.0,-88.0,-100.0,-75.0,-39.0,-56.0,-100.0,-67.0,-100.0,-100.0,-100.0,-100.0,-100.0,-53.0,-67.0,-66.0,-100.0,-100.0,-70.0,-100.0,-100.0,-39.0,-100.0,-69.0,-100.0,-52.0,-70.0,-100.0,-59.0,-100.0,-66.0,-61.0,-100.0,-70.0,-66.0,-54.0,-100.0,-100.0,-62.0,-63.0,-60.0,-63.0,-100.0,-100.0,-100.0,-48.0,-100.0,-70.0,-100.0,-100.0,-100.0,-100.0,-100.0,-100.0,-100.0,-100.0,-100.0,-100.0,-100.0,-100.0,-100.0,-100.0,-100.0,-84.0,-100.0,-100.0,-100.0,-72.0,-77.0,-100.0,-100.0,-100.0,-100.0,-100.0,-100.0,-100.0,-100.0,-100.0,-100.0,-100.0,-100.0,-100.0,-100.0,-90.0,-86.0,-87.0,-90.0,-100.0,-100.0,-100.0,-100.0,-100.0,-100.0,-100.0,-100.0,-100.0,-100.0,-100.0,-100.0,-100.0,-100.0,-100.0,-100.0,-100.0,-100.0,-100.0,-100.0,-100.0,-100.0,-100.0,-100.0,-100.0,-100.0,-100.0,-100.0,-100.0,-100.0,-100.0,-100.0,-100.0,-100.0,-100.0,-100.0
2021.01.16 155159,37.0,24.0,19.90118323076923,-11.131597384615386,-29.71633086982248,-0.17593840703550295,0.8302638099999999,9.65758626923077,0.0018000644618343196,-0.0011169074837278107,-0.0032025242251479285,-0.08574665959417463,0.01823313037049263,-1.9850821911230596,1015.5727722485206,-100.0,-100.0,-100.0,-100.0,-100.0,-84.0,-100.0,-100.0,-100.0,-100.0,-100.0,-100.0,-100.0,-100.0,-59.0,-61.0,-100.0,-86.0,-55.0,-74.0,-100.0,-100.0,-66.0,-65.0,-37.0,-52.0,-49.0,-51.0,-100.0,-57.0,-62.0,-100.0,-83.0,-54.0,-74.0,-100.0,-100.0,-65.0,-65.0,-36.0,-52.0,-48.0,-55.0,-100.0,-100.0,-100.0,-100.0,-100.0,-56.0,-55.0,-100.0,-100.0,-100.0,-70.0,-100.0,-100.0,-49.0,-100.0,-71.0,-100.0,-56.0,-71.0,-100.0,-62.0,-100.0,-100.0,-60.0,-100.0,-100.0,-63.0,-59.0,-100.0,-100.0,-62.0,-56.0,-62.0,-56.0,-100.0,-100.0,-100.0,-47.0,-73.0,-100.0,-79.0,-100.0,-100.0,-100.0,-74.0,-79.0,-100.0,-68.0,-100.0,-100.0,-100.0,-100.0,-100.0,-73.0,-88.0,-80.0,-76.0,-100.0,-100.0,-100.0,-81.0,-100.0,-100.0,-100.0,-100.0,-100.0,-100.0,-100.0,-100.0,-100.0,-71.0,-100.0,-100.0,-100.0,-100.0,-86.0,-88.0,-86.0,-87.0,-83.0,-82.0,-82.0,-100.0,-100.0,-100.0,-100.0,-100.0,-100.0,-100.0,-100.0,-100.0,-100.0,-100.0,-100.0,-100.0,-100.0,-100.0,-100.0,-100.0,-100.0,-100.0,-100.0,-100.0,-100.0,-100.0,-100.0,-100.0,-100.0,-100.0,-100.0,-100.0,-100.0,-100.0,-100.0,-100.0
2021.01.16 155230,39.0,24.0,14.270581005813954,-7.582674262790698,-27.100115953488373,-0.14682581064709302,0.6771971663372093,9.683376537790698,0.0018290442473837207,-0.001995966523255814,0.0005824529267441859,-0.06985517516515626,0.015239920745316727,-1.9579352285972862,1015.5655610465114,-100.0,-100.0,-80.0,-100.0,-100.0,-100.0,-100.0,-100.0,-100.0,-100.0,-100.0,-100.0,-72.0,-79.0,-56.0,-68.0,-64.0,-86.0,-48.0,-74.0,-56.0,-100.0,-63.0,-71.0,-45.0,-56.0,-44.0,-36.0,-100.0,-56.0,-69.0,-65.0,-86.0,-48.0,-74.0,-61.0,-100.0,-63.0,-71.0,-45.0,-56.0,-44.0,-65.0,-100.0,-100.0,-100.0,-100.0,-100.0,-52.0,-64.0,-62.0,-74.0,-100.0,-70.0,-100.0,-100.0,-37.0,-100.0,-68.0,-100.0,-52.0,-69.0,-100.0,-62.0,-100.0,-67.0,-63.0,-82.0,-100.0,-62.0,-56.0,-100.0,-100.0,-65.0,-65.0,-64.0,-65.0,-100.0,-100.0,-62.0,-47.0,-70.0,-70.0,-100.0,-83.0,-100.0,-80.0,-79.0,-91.0,-100.0,-100.0,-100.0,-100.0,-100.0,-81.0,-100.0,-100.0,-100.0,-90.0,-100.0,-100.0,-100.0,-76.0,-77.0,-75.0,-100.0,-100.0,-63.0,-100.0,-100.0,-100.0,-100.0,-100.0,-60.0,-100.0,-100.0,-77.0,-100.0,-100.0,-80.0,-91.0,-100.0,-91.0,-100.0,-100.0,-81.0,-100.0,-100.0,-100.0,-100.0,-100.0,-100.0,-100.0,-100.0,-100.0,-100.0,-100.0,-100.0,-100.0,-100.0,-100.0,-100.0,-100.0,-100.0,-100.0,-100.0,-100.0,-100.0,-100.0,-100.0,-100.0,-100.0,-100.0,-100.0,-100.0,-100.0,-100.0,-100.0
2021.01.16 155319,42.0,24.0,18.3899998045977,3.7824137287356314,-31.743792643678162,-0.306925650683908,0.8084696219540232,9.679688646551725,0.0014639700928160923,-0.004511274866091954,-0.001779934993965517,-0.08329870932917481,0.031789456775154996,-1.2147542861686356,1015.6156475862067,-100.0,-100.0,-77.0,-100.0,-100.0,-100.0,-100.0,-100.0,-100.0,-100.0,-100.0,-100.0,-100.0,-100.0,-60.0,-75.0,-72.0,-100.0,-52.0,-71.0,-77.0,-100.0,-65.0,-75.0,-49.0,-61.0,-50.0,-57.0,-100.0,-60.0,-76.0,-73.0,-100.0,-53.0,-71.0,-78.0,-100.0,-63.0,-74.0,-50.0,-61.0,-50.0,-61.0,-100.0,-100.0,-100.0,-100.0,-100.0,-47.0,-61.0,-61.0,-100.0,-100.0,-79.0,-100.0,-100.0,-58.0,-100.0,-65.0,-100.0,-46.0,-66.0,-100.0,-62.0,-100.0,-75.0,-62.0,-100.0,-100.0,-62.0,-54.0,-69.0,-100.0,-61.0,-76.0,-61.0,-76.0,-100.0,-100.0,-69.0,-63.0,-100.0,-100.0,-73.0,-68.0,-100.0,-76.0,-82.0,-87.0,-100.0,-61.0,-100.0,-100.0,-100.0,-76.0,-100.0,-100.0,-100.0,-84.0,-73.0,-100.0,-100.0,-100.0,-80.0,-100.0,-100.0,-100.0,-63.0,-100.0,-100.0,-85.0,-100.0,-100.0,-61.0,-86.0,-100.0,-100.0,-100.0,-85.0,-100.0,-87.0,-86.0,-100.0,-100.0,-100.0,-79.0,-80.0,-100.0,-100.0,-100.0,-100.0,-100.0,-100.0,-100.0,-100.0,-100.0,-100.0,-100.0,-100.0,-100.0,-100.0,-100.0,-100.0,-100.0,-100.0,-100.0,-100.0,-100.0,-100.0,-100.0,-100.0,-100.0,-100.0,-100.0,-100.0,-100.0,-100.0,-100.0
2021.01.16 155335,43.0,24.0,21.259162041884817,3.1743454989528797,-31.933507434554972,-0.07324251576230366,0.6394148116230366,9.713852819371729,0.0017686307688481678,-0.0003901863714659689,-0.002734501474607329,-0.06577583109833178,0.007549698297905748,-1.324554875259,1015.62310565445,-100.0,-100.0,-81.0,-100.0,-100.0,-100.0,-100.0,-100.0,-100.0,-100.0,-100.0,-100.0,-100.0,-100.0,-57.0,-73.0,-100.0,-100.0,-52.0,-71.0,-76.0,-100.0,-100.0,-79.0,-53.0,-67.0,-44.0,-54.0,-100.0,-57.0,-73.0,-100.0,-100.0,-53.0,-71.0,-100.0,-100.0,-100.0,-76.0,-55.0,-66.0,-43.0,-63.0,-100.0,-100.0,-100.0,-100.0,-100.0,-44.0,-63.0,-57.0,-100.0,-100.0,-92.0,-100.0,-100.0,-54.0,-100.0,-55.0,-100.0,-44.0,-57.0,-100.0,-64.0,-100.0,-79.0,-66.0,-82.0,-67.0,-58.0,-51.0,-55.0,-100.0,-70.0,-78.0,-100.0,-79.0,-100.0,-100.0,-100.0,-76.0,-74.0,-72.0,-100.0,-67.0,-100.0,-74.0,-100.0,-85.0,-100.0,-100.0,-100.0,-100.0,-100.0,-73.0,-100.0,-100.0,-100.0,-77.0,-100.0,-100.0,-100.0,-69.0,-64.0,-100.0,-100.0,-100.0,-100.0,-100.0,-100.0,-100.0,-100.0,-100.0,-100.0,-100.0,-100.0,-100.0,-100.0,-100.0,-100.0,-100.0,-100.0,-100.0,-100.0,-100.0,-73.0,-100.0,-67.0,-100.0,-100.0,-100.0,-100.0,-100.0,-100.0,-100.0,-100.0,-100.0,-100.0,-100.0,-100.0,-100.0,-100.0,-100.0,-100.0,-100.0,-100.0,-100.0,-100.0,-100.0,-100.0,-100.0,-100.0,-100.0,-100.0,-100.0,-100.0,-100.0,-100.0
2021.01.16 155351,44.0,24.0,21.718255610465118,2.679767408139535,-30.537208848837206,-0.06602150370930232,0.7735498627906977,9.694011241279071,0.002880300536627907,-0.0011364934843023256,-0.0030294653959302325,-0.07969508047193978,0.006768645882354537,-1.3371750012386676,1015.6524055813952,-100.0,-100.0,-79.0,-100.0,-100.0,-100.0,-100.0,-100.0,-100.0,-100.0,-100.0,-100.0,-81.0,-100.0,-59.0,-73.0,-70.0,-100.0,-51.0,-70.0,-100.0,-100.0,-100.0,-79.0,-58.0,-70.0,-42.0,-58.0,-100.0,-59.0,-73.0,-100.0,-100.0,-51.0,-70.0,-100.0,-100.0,-100.0,-80.0,-57.0,-72.0,-43.0,-60.0,-100.0,-100.0,-100.0,-100.0,-100.0,-35.0,-59.0,-59.0,-100.0,-100.0,-100.0,-100.0,-100.0,-58.0,-100.0,-52.0,-100.0,-35.0,-52.0,-100.0,-75.0,-100.0,-100.0,-100.0,-100.0,-72.0,-58.0,-100.0,-64.0,-100.0,-74.0,-76.0,-74.0,-77.0,-100.0,-100.0,-100.0,-100.0,-100.0,-67.0,-100.0,-54.0,-100.0,-81.0,-100.0,-87.0,-100.0,-100.0,-100.0,-100.0,-100.0,-81.0,-100.0,-100.0,-100.0,-83.0,-100.0,-100.0,-100.0,-63.0,-100.0,-100.0,-100.0,-100.0,-55.0,-100.0,-100.0,-100.0,-100.0,-100.0,-100.0,-100.0,-100.0,-100.0,-100.0,-100.0,-100.0,-100.0,-100.0,-100.0,-94.0,-93.0,-100.0,-100.0,-100.0,-90.0,-90.0,-100.0,-100.0,-100.0,-100.0,-100.0,-100.0,-100.0,-100.0,-100.0,-100.0,-100.0,-100.0,-100.0,-100.0,-100.0,-100.0,-100.0,-100.0,-100.0,-100.0,-100.0,-100.0,-100.0,-100.0,-100.0,-100.0,-100.0,-100.0
2021.01.16 155408,45.0,24.0,21.84703888826816,3.6110613927374304,-30.648938067039104,-0.0931197336536313,0.7128300835195531,9.664990918994414,0.0020680688346368715,0.0009009409983240223,-0.003955267179608939,-0.0736348449601141,0.009670661061786073,-1.3046380667713102,1015.6721147486033,-100.0,-100.0,-100.0,-100.0,-100.0,-100.0,-100.0,-100.0,-84.0,-100.0,-100.0,-100.0,-100.0,-100.0,-100.0,-61.0,-100.0,-85.0,-55.0,-66.0,-100.0,-100.0,-100.0,-68.0,-100.0,-65.0,-46.0,-100.0,-100.0,-100.0,-63.0,-100.0,-84.0,-54.0,-66.0,-100.0,-100.0,-100.0,-68.0,-100.0,-64.0,-46.0,-56.0,-100.0,-100.0,-100.0,-100.0,-100.0,-34.0,-57.0,-58.0,-100.0,-100.0,-100.0,-100.0,-100.0,-100.0,-100.0,-43.0,-100.0,-33.0,-43.0,-100.0,-100.0,-100.0,-100.0,-70.0,-100.0,-100.0,-60.0,-57.0,-57.0,-100.0,-77.0,-72.0,-77.0,-73.0,-100.0,-100.0,-100.0,-100.0,-100.0,-100.0,-64.0,-47.0,-100.0,-100.0,-100.0,-75.0,-100.0,-100.0,-100.0,-100.0,-100.0,-100.0,-100.0,-100.0,-100.0,-77.0,-62.0,-100.0,-100.0,-100.0,-68.0,-100.0,-100.0,-100.0,-65.0,-100.0,-100.0,-100.0,-100.0,-100.0,-58.0,-74.0,-100.0,-100.0,-100.0,-100.0,-100.0,-100.0,-100.0,-82.0,-100.0,-100.0,-100.0,-100.0,-100.0,-80.0,-82.0,-100.0,-100.0,-100.0,-100.0,-100.0,-100.0,-100.0,-100.0,-100.0,-100.0,-100.0,-100.0,-100.0,-100.0,-100.0,-100.0,-100.0,-100.0,-100.0,-100.0,-100.0,-100.0,-100.0,-100.0,-100.0,-100.0,-100.0,-100.0
2021.01.16 155445,46.0,24.0,22.704418360465116,5.689534801744185,-32.4282553372093,-0.03748596052034883,0.7062338263372092,9.667396630813954,0.005174596917151163,-0.00046170047151162765,-0.004425221457267442,-0.07293102127868072,0.0039240911377145665,-1.2283030263213224,1015.7288008139534,-100.0,-100.0,-78.0,-100.0,-100.0,-100.0,-100.0,-100.0,-80.0,-100.0,-100.0,-100.0,-100.0,-100.0,-63.0,-71.0,-100.0,-100.0,-50.0,-68.0,-100.0,-100.0,-65.0,-76.0,-100.0,-73.0,-41.0,-57.0,-100.0,-60.0,-72.0,-100.0,-100.0,-51.0,-67.0,-72.0,-100.0,-64.0,-77.0,-57.0,-73.0,-40.0,-57.0,-100.0,-100.0,-100.0,-100.0,-100.0,-35.0,-57.0,-100.0,-100.0,-100.0,-100.0,-100.0,-100.0,-57.0,-100.0,-53.0,-100.0,-35.0,-52.0,-100.0,-100.0,-100.0,-100.0,-100.0,-100.0,-69.0,-100.0,-56.0,-64.0,-100.0,-73.0,-81.0,-73.0,-83.0,-100.0,-100.0,-100.0,-67.0,-100.0,-67.0,-60.0,-50.0,-100.0,-100.0,-100.0,-77.0,-100.0,-100.0,-100.0,-100.0,-100.0,-75.0,-100.0,-100.0,-100.0,-78.0,-62.0,-100.0,-100.0,-100.0,-61.0,-100.0,-100.0,-100.0,-54.0,-100.0,-100.0,-100.0,-100.0,-72.0,-100.0,-79.0,-100.0,-100.0,-100.0,-100.0,-81.0,-100.0,-100.0,-100.0,-100.0,-100.0,-100.0,-100.0,-100.0,-86.0,-86.0,-100.0,-100.0,-100.0,-100.0,-100.0,-100.0,-100.0,-100.0,-100.0,-100.0,-100.0,-100.0,-100.0,-100.0,-100.0,-100.0,-100.0,-100.0,-100.0,-100.0,-100.0,-100.0,-100.0,-100.0,-100.0,-100.0,-100.0,-100.0
2021.01.16 155532,49.0,24.0,25.308124718749998,3.6528124500000003,-27.151249583333335,-0.130870555859375,0.9266807526041667,9.651139218749998,0.001441260233854167,-0.0004963280440104169,7.317658151041653e-05,-0.09575951883258915,0.013566531944282615,-1.324439926693837,1015.77075125,-100.0,-100.0,-77.0,-100.0,-100.0,-100.0,-100.0,-100.0,-81.0,-100.0,-100.0,-100.0,-100.0,-100.0,-60.0,-73.0,-82.0,-100.0,-50.0,-65.0,-100.0,-100.0,-63.0,-76.0,-57.0,-67.0,-46.0,-64.0,-100.0,-61.0,-74.0,-79.0,-100.0,-49.0,-65.0,-76.0,-100.0,-62.0,-78.0,-100.0,-68.0,-46.0,-63.0,-100.0,-100.0,-100.0,-100.0,-100.0,-34.0,-61.0,-68.0,-100.0,-100.0,-100.0,-100.0,-100.0,-62.0,-100.0,-51.0,-100.0,-34.0,-53.0,-100.0,-100.0,-100.0,-100.0,-100.0,-100.0,-63.0,-64.0,-59.0,-51.0,-100.0,-71.0,-85.0,-72.0,-86.0,-100.0,-100.0,-100.0,-100.0,-66.0,-100.0,-59.0,-56.0,-100.0,-75.0,-82.0,-74.0,-100.0,-100.0,-100.0,-100.0,-82.0,-75.0,-81.0,-100.0,-100.0,-75.0,-59.0,-100.0,-100.0,-68.0,-75.0,-100.0,-100.0,-100.0,-57.0,-100.0,-100.0,-100.0,-100.0,-79.0,-49.0,-77.0,-100.0,-100.0,-100.0,-100.0,-100.0,-100.0,-100.0,-100.0,-87.0,-88.0,-68.0,-100.0,-100.0,-86.0,-87.0,-77.0,-85.0,-81.0,-80.0,-100.0,-100.0,-100.0,-100.0,-100.0,-100.0,-100.0,-100.0,-100.0,-100.0,-100.0,-100.0,-100.0,-100.0,-100.0,-100.0,-100.0,-100.0,-100.0,-100.0,-100.0,-100.0,-100.0,-100.0
2021.01.16 155606,51.0,24.0,27.174999696428568,3.2246427982142856,-25.48714252380952,-0.2578612242619048,0.8850138040476191,9.699951377976191,0.0017816903907738098,0.0010508335874999993,-0.0007963065366071426,-0.09096918574401307,0.026627132990272733,-1.3626133636349724,1015.7579516666667,-100.0,-100.0,-82.0,-100.0,-100.0,-100.0,-100.0,-100.0,-100.0,-81.0,-100.0,-100.0,-100.0,-100.0,-62.0,-77.0,-100.0,-100.0,-53.0,-69.0,-75.0,-100.0,-62.0,-76.0,-61.0,-70.0,-36.0,-62.0,-100.0,-61.0,-77.0,-100.0,-100.0,-54.0,-69.0,-71.0,-100.0,-64.0,-76.0,-60.0,-70.0,-37.0,-46.0,-100.0,-100.0,-100.0,-100.0,-100.0,-35.0,-46.0,-53.0,-100.0,-100.0,-100.0,-100.0,-100.0,-62.0,-100.0,-51.0,-100.0,-36.0,-57.0,-100.0,-79.0,-100.0,-100.0,-69.0,-100.0,-67.0,-53.0,-54.0,-55.0,-100.0,-100.0,-87.0,-100.0,-87.0,-100.0,-100.0,-100.0,-73.0,-63.0,-63.0,-57.0,-71.0,-100.0,-65.0,-100.0,-68.0,-100.0,-100.0,-100.0,-100.0,-100.0,-65.0,-79.0,-100.0,-100.0,-67.0,-55.0,-100.0,-100.0,-100.0,-79.0,-100.0,-100.0,-100.0,-63.0,-100.0,-100.0,-100.0,-77.0,-100.0,-59.0,-100.0,-100.0,-100.0,-100.0,-100.0,-100.0,-100.0,-100.0,-84.0,-86.0,-86.0,-69.0,-100.0,-62.0,-81.0,-82.0,-100.0,-80.0,-100.0,-100.0,-93.0,-84.0,-100.0,-100.0,-100.0,-100.0,-100.0,-100.0,-100.0,-100.0,-100.0,-100.0,-100.0,-100.0,-100.0,-100.0,-100.0,-100.0,-100.0,-100.0,-100.0,-100.0,-100.0,-100.0
2021.01.16 155621,52.0,24.0,25.090449134831463,3.815056096067416,-24.489774971910116,-0.22754331532022473,0.8335453508988764,9.672130946629213,-4.971910149504758e-11,-0.004022101483146067,-0.0010261163294943822,-0.08595232062795186,0.023543439670082975,-1.3323440149928747,1015.7625370786515,-100.0,-100.0,-100.0,-100.0,-100.0,-100.0,-100.0,-100.0,-100.0,-100.0,-100.0,-100.0,-100.0,-100.0,-63.0,-75.0,-79.0,-100.0,-55.0,-63.0,-100.0,-100.0,-66.0,-65.0,-60.0,-63.0,-37.0,-100.0,-100.0,-64.0,-75.0,-78.0,-100.0,-55.0,-63.0,-100.0,-100.0,-100.0,-65.0,-60.0,-64.0,-37.0,-46.0,-100.0,-100.0,-100.0,-100.0,-100.0,-41.0,-47.0,-54.0,-100.0,-100.0,-100.0,-100.0,-100.0,-100.0,-100.0,-64.0,-100.0,-41.0,-62.0,-100.0,-85.0,-100.0,-100.0,-100.0,-100.0,-61.0,-54.0,-69.0,-47.0,-100.0,-100.0,-88.0,-100.0,-86.0,-100.0,-100.0,-100.0,-100.0,-100.0,-100.0,-72.0,-75.0,-100.0,-63.0,-100.0,-64.0,-100.0,-100.0,-100.0,-100.0,-100.0,-61.0,-100.0,-100.0,-100.0,-57.0,-100.0,-100.0,-100.0,-72.0,-100.0,-100.0,-100.0,-100.0,-64.0,-100.0,-100.0,-100.0,-100.0,-100.0,-53.0,-66.0,-100.0,-100.0,-100.0,-100.0,-100.0,-100.0,-100.0,-74.0,-80.0,-79.0,-76.0,-66.0,-61.0,-87.0,-88.0,-100.0,-82.0,-88.0,-100.0,-82.0,-100.0,-79.0,-80.0,-84.0,-83.0,-100.0,-100.0,-100.0,-100.0,-100.0,-100.0,-100.0,-100.0,-100.0,-100.0,-100.0,-100.0,-100.0,-100.0,-100.0,-100.0,-100.0,-100.0
2021.01.16 155654,54.0,24.0,29.431083915662647,2.918313204819277,-23.578192469879518,-0.25198251775903613,0.799273946445783,9.688439984939759,0.0033082401289156625,-0.0028519309807228917,-0.0022852247993975904,-0.08231112289141455,0.026049246927386624,-1.4018276089645294,1015.7938986746989,-100.0,-100.0,-84.0,-100.0,-100.0,-100.0,-100.0,-100.0,-100.0,-100.0,-100.0,-100.0,-100.0,-100.0,-62.0,-76.0,-82.0,-100.0,-53.0,-68.0,-76.0,-100.0,-100.0,-75.0,-54.0,-69.0,-32.0,-100.0,-100.0,-62.0,-75.0,-81.0,-100.0,-53.0,-70.0,-77.0,-100.0,-100.0,-74.0,-100.0,-69.0,-33.0,-52.0,-100.0,-100.0,-100.0,-100.0,-100.0,-41.0,-51.0,-53.0,-100.0,-100.0,-100.0,-100.0,-100.0,-100.0,-100.0,-64.0,-100.0,-42.0,-64.0,-100.0,-100.0,-100.0,-100.0,-100.0,-100.0,-100.0,-51.0,-63.0,-45.0,-100.0,-79.0,-85.0,-100.0,-84.0,-100.0,-100.0,-100.0,-100.0,-54.0,-53.0,-62.0,-100.0,-100.0,-66.0,-100.0,-68.0,-100.0,-100.0,-100.0,-100.0,-100.0,-67.0,-100.0,-100.0,-100.0,-60.0,-100.0,-100.0,-100.0,-100.0,-60.0,-100.0,-100.0,-100.0,-58.0,-100.0,-100.0,-100.0,-100.0,-100.0,-100.0,-66.0,-100.0,-100.0,-100.0,-100.0,-100.0,-100.0,-100.0,-80.0,-79.0,-79.0,-75.0,-100.0,-57.0,-89.0,-89.0,-100.0,-73.0,-100.0,-100.0,-100.0,-100.0,-100.0,-100.0,-100.0,-100.0,-100.0,-100.0,-100.0,-100.0,-100.0,-100.0,-100.0,-100.0,-100.0,-100.0,-100.0,-100.0,-100.0,-100.0,-100.0,-100.0,-100.0,-100.0
2021.01.16 155740,57.0,24.0,26.008124687499997,-1.2209999739375,-24.598499662499997,-0.1004816520625,0.791612860875,9.704986328124999,0.0017333300412499999,-0.00014126263062500013,-0.00277943683,-0.08141476106829937,0.010350310451758517,-1.5392377533018589,1015.8141580625,-100.0,-100.0,-100.0,-100.0,-100.0,-100.0,-100.0,-100.0,-100.0,-100.0,-100.0,-100.0,-100.0,-100.0,-66.0,-75.0,-100.0,-90.0,-53.0,-63.0,-100.0,-100.0,-100.0,-69.0,-63.0,-76.0,-33.0,-100.0,-100.0,-65.0,-74.0,-100.0,-87.0,-51.0,-61.0,-100.0,-100.0,-100.0,-67.0,-63.0,-75.0,-33.0,-47.0,-100.0,-100.0,-100.0,-100.0,-100.0,-59.0,-48.0,-57.0,-100.0,-100.0,-100.0,-100.0,-100.0,-100.0,-100.0,-63.0,-100.0,-60.0,-62.0,-100.0,-100.0,-100.0,-100.0,-100.0,-100.0,-51.0,-56.0,-72.0,-54.0,-100.0,-84.0,-88.0,-84.0,-88.0,-100.0,-100.0,-100.0,-100.0,-56.0,-100.0,-75.0,-72.0,-100.0,-100.0,-100.0,-62.0,-100.0,-100.0,-100.0,-100.0,-88.0,-63.0,-100.0,-100.0,-100.0,-63.0,-81.0,-100.0,-100.0,-68.0,-100.0,-100.0,-100.0,-100.0,-49.0,-100.0,-100.0,-90.0,-81.0,-65.0,-100.0,-100.0,-100.0,-100.0,-100.0,-100.0,-100.0,-100.0,-100.0,-76.0,-73.0,-72.0,-100.0,-63.0,-60.0,-100.0,-100.0,-100.0,-76.0,-100.0,-100.0,-100.0,-71.0,-81.0,-80.0,-77.0,-79.0,-90.0,-90.0,-100.0,-100.0,-100.0,-100.0,-100.0,-100.0,-100.0,-100.0,-100.0,-100.0,-100.0,-100.0,-100.0,-100.0,-100.0,-100.0
2021.01.16 155754,58.0,24.0,24.876785476190477,-0.2142857092857143,-26.205356767857147,-0.06794972421309524,0.6712743095833333,9.649445166666666,0.0032797646488095236,1.090841696428646e-05,-0.0037851828616071435,-0.06946114432953648,0.007024312582347296,-1.5051856679575784,1015.8116219047619,-100.0,-100.0,-100.0,-100.0,-100.0,-100.0,-100.0,-100.0,-100.0,-100.0,-100.0,-100.0,-100.0,-100.0,-55.0,-79.0,-82.0,-100.0,-48.0,-73.0,-75.0,-100.0,-100.0,-72.0,-65.0,-75.0,-39.0,-100.0,-100.0,-55.0,-79.0,-81.0,-100.0,-50.0,-72.0,-76.0,-100.0,-100.0,-75.0,-65.0,-75.0,-39.0,-47.0,-100.0,-100.0,-100.0,-100.0,-100.0,-60.0,-46.0,-42.0,-100.0,-100.0,-100.0,-100.0,-100.0,-100.0,-100.0,-80.0,-100.0,-60.0,-80.0,-100.0,-100.0,-100.0,-100.0,-100.0,-100.0,-49.0,-42.0,-100.0,-100.0,-100.0,-79.0,-89.0,-79.0,-88.0,-100.0,-100.0,-100.0,-100.0,-56.0,-56.0,-100.0,-81.0,-100.0,-100.0,-100.0,-72.0,-100.0,-100.0,-100.0,-100.0,-80.0,-100.0,-78.0,-100.0,-100.0,-71.0,-100.0,-100.0,-100.0,-55.0,-59.0,-100.0,-100.0,-100.0,-65.0,-100.0,-100.0,-100.0,-81.0,-100.0,-100.0,-66.0,-100.0,-100.0,-100.0,-100.0,-100.0,-100.0,-100.0,-100.0,-73.0,-74.0,-100.0,-55.0,-60.0,-100.0,-100.0,-100.0,-72.0,-100.0,-100.0,-100.0,-100.0,-81.0,-80.0,-78.0,-79.0,-81.0,-100.0,-100.0,-100.0,-100.0,-100.0,-100.0,-100.0,-100.0,-100.0,-100.0,-100.0,-100.0,-100.0,-100.0,-100.0,-100.0,-100.0
2021.01.16 155810,59.0,24.0,22.0753291497006,-1.1935329091017963,-26.575328958083833,-0.09946689439161677,0.6546206233532933,9.69653112275449,0.003134799484131736,-0.0019203846958083832,-7.681528622754503e-05,-0.06740433301129736,0.010253053515958482,-1.542478912604783,1015.8283328143713,-100.0,-100.0,-100.0,-100.0,-100.0,-100.0,-100.0,-100.0,-81.0,-100.0,-100.0,-100.0,-100.0,-100.0,-62.0,-78.0,-81.0,-100.0,-48.0,-72.0,-100.0,-100.0,-100.0,-80.0,-62.0,-77.0,-30.0,-72.0,-100.0,-61.0,-79.0,-100.0,-100.0,-50.0,-70.0,-100.0,-100.0,-63.0,-79.0,-62.0,-79.0,-30.0,-40.0,-100.0,-100.0,-100.0,-100.0,-100.0,-62.0,-40.0,-34.0,-100.0,-100.0,-100.0,-100.0,-100.0,-72.0,-100.0,-82.0,-100.0,-62.0,-82.0,-100.0,-100.0,-100.0,-100.0,-100.0,-100.0,-54.0,-34.0,-79.0,-100.0,-100.0,-84.0,-90.0,-83.0,-88.0,-100.0,-100.0,-100.0,-100.0,-53.0,-52.0,-100.0,-82.0,-100.0,-61.0,-100.0,-76.0,-100.0,-100.0,-100.0,-100.0,-100.0,-62.0,-100.0,-100.0,-100.0,-78.0,-100.0,-100.0,-100.0,-59.0,-61.0,-100.0,-100.0,-100.0,-61.0,-100.0,-69.0,-100.0,-100.0,-62.0,-55.0,-71.0,-100.0,-100.0,-100.0,-100.0,-100.0,-100.0,-100.0,-100.0,-67.0,-69.0,-100.0,-59.0,-61.0,-100.0,-100.0,-100.0,-68.0,-100.0,-100.0,-85.0,-69.0,-71.0,-71.0,-85.0,-84.0,-81.0,-100.0,-71.0,-100.0,-100.0,-100.0,-100.0,-100.0,-100.0,-100.0,-100.0,-100.0,-100.0,-100.0,-100.0,-100.0,-100.0,-100.0
2021.01.16 155825,60.0,24.0,20.585795227272726,0.9371590675568182,-27.920795073863633,-0.1716615408619318,0.6996102251704546,9.719833076704544,0.00015271636221590913,-0.0004338531536931818,-0.004387123129261364,-0.07185294957492835,0.017681135012026016,-1.4238734766840935,1015.829473409091,-100.0,-100.0,-100.0,-100.0,-100.0,-100.0,-100.0,-100.0,-100.0,-100.0,-100.0,-100.0,-100.0,-100.0,-65.0,-76.0,-100.0,-100.0,-48.0,-58.0,-100.0,-100.0,-57.0,-68.0,-64.0,-77.0,-32.0,-75.0,-100.0,-65.0,-74.0,-100.0,-100.0,-48.0,-57.0,-100.0,-100.0,-61.0,-69.0,-62.0,-78.0,-32.0,-36.0,-100.0,-100.0,-100.0,-100.0,-100.0,-63.0,-36.0,-38.0,-100.0,-100.0,-100.0,-100.0,-100.0,-72.0,-100.0,-76.0,-100.0,-62.0,-75.0,-100.0,-100.0,-100.0,-100.0,-100.0,-100.0,-47.0,-38.0,-100.0,-67.0,-100.0,-100.0,-100.0,-100.0,-100.0,-100.0,-100.0,-100.0,-100.0,-51.0,-54.0,-100.0,-79.0,-100.0,-54.0,-100.0,-76.0,-100.0,-100.0,-100.0,-100.0,-85.0,-54.0,-100.0,-100.0,-100.0,-81.0,-100.0,-100.0,-100.0,-54.0,-74.0,-100.0,-100.0,-100.0,-69.0,-100.0,-100.0,-84.0,-78.0,-57.0,-100.0,-73.0,-100.0,-100.0,-100.0,-100.0,-100.0,-100.0,-100.0,-72.0,-57.0,-58.0,-100.0,-60.0,-58.0,-100.0,-100.0,-100.0,-68.0,-100.0,-100.0,-73.0,-100.0,-61.0,-61.0,-75.0,-76.0,-100.0,-69.0,-67.0,-100.0,-100.0,-100.0,-100.0,-100.0,-100.0,-100.0,-100.0,-100.0,-100.0,-100.0,-100.0,-100.0,-100.0,-100.0
2021.01.16 155857,62.0,24.0,26.287673994186044,3.1060464575581395,-28.238720517441866,-0.1787856193627907,0.6948196101744186,9.656678520348837,0.0024612186127906974,-0.0025322495340116278,-0.000976674079651163,-0.07181779189078609,0.01852207078610618,-1.3729753397231879,1015.8884418023257,-100.0,-100.0,-100.0,-100.0,-100.0,-100.0,-100.0,-100.0,-100.0,-100.0,-100.0,-100.0,-100.0,-100.0,-63.0,-81.0,-100.0,-100.0,-48.0,-62.0,-100.0,-100.0,-100.0,-76.0,-68.0,-76.0,-100.0,-100.0,-83.0,-63.0,-82.0,-100.0,-100.0,-49.0,-63.0,-100.0,-100.0,-100.0,-76.0,-67.0,-76.0,-100.0,-32.0,-100.0,-100.0,-100.0,-100.0,-100.0,-67.0,-32.0,-34.0,-100.0,-100.0,-100.0,-100.0,-100.0,-100.0,-100.0,-82.0,-100.0,-67.0,-84.0,-100.0,-100.0,-100.0,-100.0,-100.0,-100.0,-44.0,-35.0,-78.0,-100.0,-100.0,-82.0,-100.0,-100.0,-100.0,-100.0,-100.0,-100.0,-100.0,-45.0,-44.0,-100.0,-80.0,-100.0,-56.0,-100.0,-83.0,-100.0,-100.0,-100.0,-100.0,-100.0,-56.0,-100.0,-100.0,-100.0,-80.0,-100.0,-66.0,-100.0,-57.0,-100.0,-100.0,-100.0,-100.0,-61.0,-100.0,-100.0,-100.0,-75.0,-53.0,-100.0,-100.0,-100.0,-100.0,-100.0,-100.0,-100.0,-100.0,-100.0,-72.0,-64.0,-64.0,-100.0,-100.0,-55.0,-100.0,-100.0,-100.0,-67.0,-100.0,-100.0,-76.0,-72.0,-59.0,-59.0,-77.0,-81.0,-100.0,-72.0,-69.0,-100.0,-100.0,-100.0,-100.0,-100.0,-100.0,-100.0,-100.0,-100.0,-100.0,-100.0,-100.0,-100.0,-100.0,-100.0
2021.01.16 155948,65.0,24.0,38.1929819005848,8.699298100584796,-28.43929792397661,-0.07742652235438596,0.5690779451461988,9.660379730994153,0.003861668672807017,0.00032150792573099377,0.0012645982666666669,-0.05890879832338864,0.00807004508133116,-1.3038970524804634,1015.8945330994153,-100.0,-100.0,-100.0,-100.0,-100.0,-100.0,-100.0,-100.0,-100.0,-100.0,-100.0,-100.0,-100.0,-100.0,-60.0,-76.0,-100.0,-100.0,-42.0,-62.0,-100.0,-90.0,-62.0,-69.0,-59.0,-75.0,-30.0,-100.0,-100.0,-58.0,-75.0,-100.0,-100.0,-41.0,-63.0,-100.0,-90.0,-100.0,-70.0,-62.0,-76.0,-31.0,-39.0,-100.0,-100.0,-100.0,-100.0,-100.0,-70.0,-39.0,-39.0,-100.0,-100.0,-100.0,-100.0,-100.0,-100.0,-100.0,-76.0,-100.0,-69.0,-82.0,-100.0,-100.0,-100.0,-100.0,-100.0,-100.0,-46.0,-40.0,-75.0,-100.0,-100.0,-100.0,-100.0,-100.0,-100.0,-100.0,-100.0,-100.0,-100.0,-55.0,-56.0,-100.0,-100.0,-100.0,-62.0,-100.0,-79.0,-100.0,-100.0,-100.0,-100.0,-82.0,-62.0,-74.0,-100.0,-100.0,-86.0,-100.0,-53.0,-100.0,-58.0,-100.0,-100.0,-100.0,-100.0,-100.0,-100.0,-100.0,-100.0,-76.0,-56.0,-100.0,-100.0,-100.0,-100.0,-100.0,-100.0,-100.0,-100.0,-100.0,-59.0,-60.0,-60.0,-100.0,-100.0,-59.0,-100.0,-100.0,-100.0,-100.0,-100.0,-100.0,-79.0,-100.0,-73.0,-73.0,-79.0,-78.0,-76.0,-75.0,-100.0,-76.0,-90.0,-90.0,-88.0,-100.0,-100.0,-100.0,-100.0,-100.0,-100.0,-100.0,-100.0,-100.0,-100.0,-100.0
2021.01.16 160005,66.0,24.0,36.99072223493976,6.099397486746988,-31.801806855421685,-0.1936851488975904,0.6514969002409638,9.623262954819277,0.0011554922144578312,-0.001619160975602409,-0.0019466729972891562,-0.06761218614158138,0.020129976182592515,-1.3466334465038345,1015.903291325301,-100.0,-100.0,-100.0,-100.0,-100.0,-100.0,-100.0,-100.0,-100.0,-100.0,-100.0,-100.0,-100.0,-84.0,-62.0,-82.0,-100.0,-100.0,-45.0,-56.0,-100.0,-100.0,-100.0,-81.0,-64.0,-82.0,-100.0,-75.0,-83.0,-61.0,-81.0,-81.0,-100.0,-44.0,-57.0,-100.0,-100.0,-100.0,-81.0,-65.0,-81.0,-100.0,-62.0,-100.0,-100.0,-100.0,-100.0,-100.0,-69.0,-63.0,-49.0,-100.0,-100.0,-100.0,-100.0,-100.0,-74.0,-100.0,-85.0,-100.0,-70.0,-85.0,-100.0,-100.0,-100.0,-100.0,-100.0,-100.0,-53.0,-49.0,-100.0,-100.0,-100.0,-100.0,-100.0,-100.0,-100.0,-100.0,-100.0,-100.0,-100.0,-60.0,-60.0,-100.0,-100.0,-100.0,-60.0,-100.0,-92.0,-100.0,-100.0,-100.0,-100.0,-74.0,-61.0,-78.0,-100.0,-100.0,-100.0,-100.0,-56.0,-100.0,-49.0,-73.0,-100.0,-100.0,-100.0,-70.0,-100.0,-64.0,-73.0,-81.0,-59.0,-100.0,-100.0,-100.0,-100.0,-100.0,-100.0,-100.0,-100.0,-100.0,-71.0,-77.0,-77.0,-100.0,-100.0,-100.0,-100.0,-100.0,-100.0,-73.0,-76.0,-100.0,-100.0,-100.0,-86.0,-100.0,-100.0,-100.0,-77.0,-100.0,-69.0,-81.0,-87.0,-100.0,-100.0,-100.0,-100.0,-100.0,-100.0,-100.0,-100.0,-100.0,-100.0,-100.0,-100.0,-100.0
2021.01.16 160020,67.0,24.0,39.85226464088398,1.5228728985635356,-34.29944711049725,-0.19100703067403316,0.5265921024309391,9.653619657458563,0.002770830899447514,-0.004890296951933702,-0.005099543354696133,-0.054595293358832724,0.019750037368513,-1.483258248692718,1015.9032796685084,-100.0,-100.0,-100.0,-100.0,-100.0,-100.0,-100.0,-100.0,-81.0,-100.0,-100.0,-100.0,-100.0,-84.0,-65.0,-82.0,-80.0,-100.0,-39.0,-63.0,-100.0,-100.0,-65.0,-79.0,-100.0,-76.0,-43.0,-73.0,-83.0,-64.0,-82.0,-79.0,-100.0,-43.0,-63.0,-100.0,-100.0,-65.0,-80.0,-100.0,-75.0,-44.0,-63.0,-100.0,-100.0,-100.0,-100.0,-100.0,-70.0,-62.0,-49.0,-100.0,-100.0,-100.0,-100.0,-100.0,-73.0,-100.0,-83.0,-100.0,-71.0,-83.0,-100.0,-100.0,-100.0,-100.0,-100.0,-100.0,-60.0,-49.0,-100.0,-100.0,-100.0,-100.0,-100.0,-100.0,-100.0,-100.0,-100.0,-100.0,-100.0,-100.0,-67.0,-100.0,-100.0,-100.0,-61.0,-100.0,-100.0,-100.0,-100.0,-100.0,-100.0,-71.0,-61.0,-74.0,-100.0,-100.0,-100.0,-100.0,-60.0,-100.0,-52.0,-79.0,-100.0,-100.0,-100.0,-100.0,-100.0,-66.0,-100.0,-76.0,-61.0,-100.0,-100.0,-100.0,-100.0,-100.0,-100.0,-100.0,-100.0,-100.0,-73.0,-75.0,-74.0,-100.0,-100.0,-65.0,-100.0,-100.0,-100.0,-82.0,-78.0,-80.0,-93.0,-66.0,-87.0,-100.0,-100.0,-100.0,-83.0,-100.0,-78.0,-100.0,-100.0,-84.0,-87.0,-100.0,-100.0,-100.0,-100.0,-100.0,-100.0,-100.0,-100.0,-100.0,-100.0,-100.0
2021.01.16 160035,68.0,24.0,41.492068379310346,-2.6968965017241375,-37.594827206896554,-0.09004399978908045,0.5886433891954023,9.677432011494254,0.009327982392816092,0.000582779414367816,-0.004785111102873563,-0.060722977907835714,0.00931666322996817,-1.5801734677676498,1015.9208283333332,-100.0,-100.0,-82.0,-100.0,-100.0,-100.0,-100.0,-100.0,-100.0,-100.0,-100.0,-100.0,-100.0,-100.0,-63.0,-77.0,-100.0,-100.0,-54.0,-54.0,-100.0,-100.0,-63.0,-72.0,-63.0,-77.0,-40.0,-100.0,-100.0,-63.0,-76.0,-100.0,-100.0,-51.0,-55.0,-100.0,-100.0,-60.0,-73.0,-63.0,-79.0,-40.0,-59.0,-100.0,-100.0,-100.0,-100.0,-100.0,-72.0,-58.0,-56.0,-100.0,-100.0,-100.0,-100.0,-100.0,-100.0,-100.0,-76.0,-100.0,-72.0,-78.0,-100.0,-100.0,-100.0,-100.0,-100.0,-100.0,-100.0,-56.0,-100.0,-100.0,-100.0,-100.0,-100.0,-100.0,-100.0,-100.0,-100.0,-100.0,-100.0,-60.0,-100.0,-100.0,-100.0,-100.0,-71.0,-100.0,-100.0,-100.0,-100.0,-100.0,-100.0,-100.0,-72.0,-69.0,-100.0,-100.0,-100.0,-100.0,-57.0,-100.0,-51.0,-100.0,-100.0,-100.0,-100.0,-75.0,-100.0,-60.0,-100.0,-72.0,-100.0,-67.0,-100.0,-100.0,-100.0,-100.0,-100.0,-100.0,-100.0,-100.0,-63.0,-75.0,-75.0,-100.0,-100.0,-67.0,-100.0,-100.0,-100.0,-79.0,-100.0,-100.0,-88.0,-67.0,-79.0,-81.0,-86.0,-85.0,-100.0,-88.0,-77.0,-79.0,-100.0,-100.0,-88.0,-86.0,-100.0,-100.0,-100.0,-100.0,-100.0,-100.0,-100.0,-100.0,-100.0,-100.0
2021.01.16 160107,70.0,24.0,30.71132488554217,-3.621325241566265,-37.80252973493977,-0.16459415496024096,0.9846803528313252,9.690906292168675,0.004323895583433734,-0.0019466730015060241,-0.0038602267611445784,-0.10129983242915333,0.017028213681299642,-1.561606782028474,1015.9164716867468,-100.0,-100.0,-100.0,-100.0,-100.0,-100.0,-100.0,-100.0,-100.0,-100.0,-100.0,-100.0,-100.0,-100.0,-65.0,-83.0,-100.0,-100.0,-52.0,-59.0,-100.0,-100.0,-69.0,-78.0,-100.0,-76.0,-47.0,-100.0,-100.0,-64.0,-82.0,-80.0,-100.0,-53.0,-60.0,-100.0,-100.0,-71.0,-79.0,-100.0,-76.0,-47.0,-66.0,-100.0,-100.0,-100.0,-100.0,-100.0,-71.0,-66.0,-50.0,-100.0,-100.0,-100.0,-100.0,-100.0,-79.0,-100.0,-91.0,-100.0,-70.0,-100.0,-100.0,-100.0,-100.0,-100.0,-100.0,-100.0,-59.0,-51.0,-100.0,-100.0,-100.0,-83.0,-100.0,-100.0,-100.0,-100.0,-100.0,-100.0,-100.0,-100.0,-59.0,-100.0,-100.0,-100.0,-59.0,-100.0,-100.0,-100.0,-100.0,-100.0,-100.0,-80.0,-59.0,-71.0,-100.0,-100.0,-100.0,-100.0,-100.0,-100.0,-46.0,-100.0,-100.0,-100.0,-100.0,-73.0,-100.0,-65.0,-81.0,-75.0,-55.0,-65.0,-100.0,-100.0,-100.0,-100.0,-100.0,-100.0,-100.0,-100.0,-68.0,-73.0,-73.0,-100.0,-100.0,-68.0,-100.0,-100.0,-100.0,-81.0,-75.0,-75.0,-100.0,-70.0,-100.0,-100.0,-100.0,-100.0,-100.0,-100.0,-74.0,-100.0,-100.0,-81.0,-80.0,-100.0,-68.0,-100.0,-100.0,-100.0,-100.0,-100.0,-100.0,-100.0,-100.0,-100.0
2021.01.16 160158,73.0,24.0,32.26650843786982,4.854319465680473,-34.109467053254434,-0.09590973657633137,0.7774213699408284,9.73095649408284,0.001749460313609468,-9.036467455621323e-05,-0.003202524392899408,-0.07970839608791308,0.009871321771818747,-1.3376257518339438,1015.8992611834319,-100.0,-100.0,-100.0,-100.0,-100.0,-100.0,-100.0,-100.0,-100.0,-100.0,-100.0,-100.0,-100.0,-100.0,-65.0,-82.0,-100.0,-100.0,-49.0,-53.0,-100.0,-100.0,-64.0,-81.0,-65.0,-78.0,-46.0,-81.0,-100.0,-65.0,-82.0,-100.0,-100.0,-50.0,-55.0,-100.0,-100.0,-65.0,-82.0,-64.0,-78.0,-46.0,-70.0,-100.0,-100.0,-100.0,-100.0,-100.0,-72.0,-70.0,-54.0,-100.0,-100.0,-100.0,-100.0,-100.0,-81.0,-100.0,-90.0,-100.0,-71.0,-88.0,-100.0,-100.0,-100.0,-100.0,-100.0,-100.0,-100.0,-55.0,-100.0,-100.0,-100.0,-100.0,-100.0,-100.0,-100.0,-100.0,-100.0,-100.0,-100.0,-100.0,-70.0,-100.0,-83.0,-100.0,-77.0,-100.0,-100.0,-100.0,-100.0,-100.0,-100.0,-77.0,-77.0,-75.0,-100.0,-100.0,-100.0,-100.0,-100.0,-100.0,-62.0,-81.0,-100.0,-100.0,-100.0,-72.0,-100.0,-60.0,-68.0,-73.0,-100.0,-100.0,-100.0,-100.0,-100.0,-100.0,-100.0,-100.0,-100.0,-100.0,-74.0,-90.0,-89.0,-100.0,-100.0,-70.0,-100.0,-100.0,-100.0,-83.0,-77.0,-100.0,-100.0,-79.0,-91.0,-100.0,-100.0,-100.0,-100.0,-100.0,-82.0,-100.0,-100.0,-84.0,-87.0,-100.0,-63.0,-87.0,-100.0,-100.0,-100.0,-100.0,-100.0,-100.0,-100.0,-100.0
2021.01.16 160248,75.0,24.0,43.713033207865166,10.352022269662921,-29.59011197191011,-0.1662759630674157,0.6184841703370786,9.649103558988765,0.0034318272441011236,-0.0027420299410112364,-0.004842308191853933,-0.06401029630993185,0.01722095374146438,-1.2939293103271656,1015.9210937078653,-100.0,-100.0,-100.0,-100.0,-100.0,-100.0,-100.0,-100.0,-83.0,-100.0,-81.0,-100.0,-100.0,-100.0,-68.0,-82.0,-100.0,-100.0,-40.0,-51.0,-100.0,-100.0,-64.0,-83.0,-67.0,-82.0,-50.0,-77.0,-100.0,-68.0,-82.0,-84.0,-100.0,-40.0,-51.0,-100.0,-100.0,-63.0,-82.0,-70.0,-83.0,-52.0,-73.0,-100.0,-100.0,-100.0,-100.0,-100.0,-77.0,-74.0,-58.0,-100.0,-100.0,-100.0,-100.0,-100.0,-78.0,-100.0,-100.0,-100.0,-77.0,-100.0,-100.0,-100.0,-100.0,-100.0,-100.0,-100.0,-68.0,-60.0,-83.0,-100.0,-100.0,-100.0,-100.0,-84.0,-100.0,-100.0,-100.0,-100.0,-100.0,-100.0,-100.0,-100.0,-100.0,-100.0,-76.0,-100.0,-100.0,-100.0,-100.0,-100.0,-100.0,-63.0,-77.0,-65.0,-100.0,-100.0,-100.0,-100.0,-65.0,-100.0,-100.0,-100.0,-100.0,-100.0,-100.0,-80.0,-100.0,-61.0,-62.0,-66.0,-77.0,-70.0,-100.0,-100.0,-100.0,-100.0,-100.0,-100.0,-100.0,-100.0,-100.0,-100.0,-100.0,-100.0,-100.0,-74.0,-100.0,-100.0,-100.0,-100.0,-70.0,-68.0,-100.0,-100.0,-100.0,-100.0,-100.0,-100.0,-100.0,-100.0,-100.0,-100.0,-92.0,-81.0,-82.0,-100.0,-69.0,-84.0,-73.0,-76.0,-100.0,-100.0,-100.0,-100.0,-100.0,-100.0
2021.01.16 160304,76.0,24.0,38.19664624550899,5.069461008383234,-30.678682179640717,-0.0648441575760479,0.6777311217964073,9.663786505988025,0.005669707395209581,-0.0008120483577844312,-0.0040492684263473055,-0.07003232698419133,0.006720365769512255,-1.3828598396506853,1015.9304573652694,-100.0,-100.0,-100.0,-100.0,-100.0,-100.0,-100.0,-100.0,-100.0,-100.0,-100.0,-100.0,-100.0,-100.0,-66.0,-78.0,-86.0,-100.0,-35.0,-41.0,-83.0,-100.0,-71.0,-78.0,-72.0,-84.0,-56.0,-100.0,-100.0,-70.0,-80.0,-87.0,-100.0,-34.0,-43.0,-100.0,-100.0,-71.0,-75.0,-71.0,-85.0,-56.0,-61.0,-100.0,-100.0,-100.0,-100.0,-100.0,-81.0,-61.0,-61.0,-100.0,-100.0,-100.0,-100.0,-100.0,-100.0,-100.0,-90.0,-100.0,-82.0,-90.0,-100.0,-100.0,-100.0,-100.0,-100.0,-100.0,-67.0,-62.0,-100.0,-100.0,-100.0,-100.0,-100.0,-100.0,-100.0,-100.0,-100.0,-100.0,-100.0,-100.0,-100.0,-100.0,-100.0,-100.0,-100.0,-100.0,-100.0,-100.0,-100.0,-100.0,-100.0,-60.0,-83.0,-63.0,-100.0,-100.0,-100.0,-100.0,-100.0,-100.0,-100.0,-100.0,-100.0,-100.0,-100.0,-100.0,-100.0,-60.0,-60.0,-62.0,-100.0,-100.0,-100.0,-100.0,-100.0,-100.0,-100.0,-100.0,-100.0,-100.0,-79.0,-100.0,-100.0,-100.0,-100.0,-100.0,-100.0,-100.0,-100.0,-100.0,-68.0,-68.0,-100.0,-100.0,-100.0,-100.0,-100.0,-100.0,-100.0,-100.0,-100.0,-100.0,-90.0,-73.0,-72.0,-75.0,-66.0,-100.0,-80.0,-79.0,-88.0,-81.0,-79.0,-76.0,-100.0,-100.0
2021.01.16 160319,77.0,24.0,35.08793603703704,4.631111034920634,-33.902221698412696,-0.144627517578836,0.6393785346560846,9.668407116402118,0.0023303378788359784,-0.0010084125232804233,-0.002052377976455026,-0.06604121743686611,0.014996951034941752,-1.3738884578936945,1015.9251702645503,-100.0,-100.0,-100.0,-100.0,-100.0,-100.0,-100.0,-100.0,-100.0,-100.0,-100.0,-100.0,-100.0,-100.0,-70.0,-85.0,-100.0,-100.0,-34.0,-39.0,-77.0,-100.0,-72.0,-75.0,-74.0,-77.0,-53.0,-79.0,-100.0,-70.0,-82.0,-100.0,-100.0,-34.0,-41.0,-77.0,-100.0,-72.0,-74.0,-74.0,-78.0,-54.0,-65.0,-100.0,-100.0,-100.0,-100.0,-100.0,-78.0,-65.0,-68.0,-100.0,-100.0,-100.0,-100.0,-100.0,-83.0,-100.0,-90.0,-100.0,-78.0,-90.0,-100.0,-100.0,-100.0,-100.0,-100.0,-100.0,-74.0,-68.0,-83.0,-100.0,-100.0,-100.0,-100.0,-100.0,-100.0,-100.0,-100.0,-100.0,-79.0,-100.0,-100.0,-100.0,-100.0,-100.0,-84.0,-100.0,-100.0,-100.0,-100.0,-100.0,-100.0,-50.0,-86.0,-69.0,-100.0,-100.0,-100.0,-100.0,-71.0,-100.0,-73.0,-100.0,-100.0,-100.0,-100.0,-100.0,-100.0,-54.0,-51.0,-69.0,-100.0,-100.0,-100.0,-100.0,-100.0,-100.0,-100.0,-100.0,-100.0,-100.0,-88.0,-88.0,-90.0,-100.0,-86.0,-100.0,-100.0,-100.0,-100.0,-100.0,-66.0,-66.0,-100.0,-100.0,-100.0,-100.0,-100.0,-100.0,-100.0,-100.0,-100.0,-100.0,-90.0,-62.0,-66.0,-67.0,-69.0,-75.0,-74.0,-75.0,-100.0,-85.0,-84.0,-69.0,-100.0,-100.0
2021.01.16 160407,80.0,24.0,40.38806954970761,9.388070011695905,-33.718245239766084,-0.2635862052631579,0.6839296199415204,9.652203073099415,0.0040188501932748545,-0.0017361432786549707,-0.0049905189675438595,-0.07072037608738527,0.027233071582342793,-1.2795756483635707,1015.9355745029238,-100.0,-100.0,-100.0,-100.0,-100.0,-100.0,-100.0,-100.0,-100.0,-100.0,-100.0,-100.0,-100.0,-100.0,-65.0,-86.0,-100.0,-100.0,-27.0,-48.0,-75.0,-100.0,-100.0,-84.0,-100.0,-83.0,-100.0,-100.0,-100.0,-65.0,-86.0,-100.0,-100.0,-28.0,-41.0,-77.0,-100.0,-100.0,-84.0,-100.0,-82.0,-100.0,-76.0,-100.0,-100.0,-100.0,-100.0,-100.0,-76.0,-76.0,-100.0,-100.0,-100.0,-100.0,-100.0,-100.0,-100.0,-100.0,-100.0,-100.0,-79.0,-100.0,-100.0,-100.0,-100.0,-100.0,-100.0,-100.0,-100.0,-100.0,-81.0,-100.0,-100.0,-100.0,-100.0,-100.0,-100.0,-100.0,-100.0,-100.0,-100.0,-100.0,-75.0,-100.0,-100.0,-100.0,-79.0,-100.0,-100.0,-100.0,-100.0,-100.0,-100.0,-60.0,-79.0,-55.0,-100.0,-100.0,-100.0,-100.0,-67.0,-100.0,-100.0,-100.0,-100.0,-100.0,-100.0,-77.0,-100.0,-56.0,-58.0,-55.0,-100.0,-76.0,-100.0,-100.0,-100.0,-100.0,-100.0,-100.0,-100.0,-100.0,-100.0,-100.0,-100.0,-100.0,-100.0,-100.0,-100.0,-100.0,-100.0,-100.0,-64.0,-64.0,-100.0,-100.0,-100.0,-100.0,-100.0,-100.0,-100.0,-100.0,-100.0,-100.0,-100.0,-56.0,-56.0,-72.0,-67.0,-78.0,-100.0,-100.0,-100.0,-100.0,-100.0,-73.0,-91.0,-91.0
2021.01.16 160422,81.0,24.0,42.61337092000001,11.79222831714286,-31.33817107428572,-0.1268242848594286,0.4609180307428572,9.685134114285715,0.005246459846857143,-0.0007749261397142857,-0.004094542515714285,-0.047554192287581266,0.013125090258751153,-1.2654811191558837,1015.9355338285714,-100.0,-100.0,-100.0,-100.0,-100.0,-100.0,-100.0,-100.0,-100.0,-100.0,-100.0,-100.0,-100.0,-100.0,-62.0,-86.0,-100.0,-100.0,-26.0,-46.0,-81.0,-100.0,-68.0,-100.0,-75.0,-83.0,-57.0,-100.0,-100.0,-62.0,-85.0,-100.0,-100.0,-26.0,-45.0,-83.0,-100.0,-66.0,-100.0,-73.0,-84.0,-56.0,-74.0,-100.0,-100.0,-100.0,-100.0,-100.0,-100.0,-75.0,-67.0,-100.0,-100.0,-100.0,-100.0,-100.0,-100.0,-100.0,-100.0,-100.0,-76.0,-100.0,-100.0,-100.0,-100.0,-100.0,-100.0,-100.0,-77.0,-67.0,-100.0,-100.0,-100.0,-100.0,-100.0,-100.0,-100.0,-100.0,-100.0,-100.0,-100.0,-100.0,-78.0,-100.0,-100.0,-100.0,-79.0,-100.0,-100.0,-100.0,-100.0,-100.0,-100.0,-77.0,-79.0,-65.0,-100.0,-100.0,-100.0,-100.0,-79.0,-100.0,-100.0,-100.0,-100.0,-100.0,-100.0,-79.0,-100.0,-68.0,-78.0,-65.0,-100.0,-100.0,-100.0,-100.0,-100.0,-100.0,-100.0,-100.0,-100.0,-100.0,-100.0,-100.0,-100.0,-100.0,-100.0,-83.0,-100.0,-100.0,-100.0,-100.0,-71.0,-71.0,-100.0,-100.0,-100.0,-100.0,-100.0,-100.0,-100.0,-100.0,-100.0,-100.0,-100.0,-77.0,-78.0,-100.0,-100.0,-88.0,-100.0,-100.0,-100.0,-80.0,-77.0,-100.0,-89.0,-87.0
2021.01.16 160456,83.0,24.0,45.1902756519337,2.4202209551381215,-30.09049674033149,-0.10488190764861878,0.5599521887292818,9.676027256906078,0.0017617219229281768,-0.0014546017837016574,-0.008629737275414365,-0.05779570292743197,0.01087923978469806,-1.4776175351432674,1015.9495317679557,-100.0,-100.0,-100.0,-100.0,-100.0,-100.0,-100.0,-100.0,-100.0,-100.0,-100.0,-100.0,-100.0,-100.0,-69.0,-82.0,-100.0,-100.0,-40.0,-52.0,-100.0,-100.0,-100.0,-100.0,-68.0,-83.0,-100.0,-100.0,-100.0,-69.0,-83.0,-83.0,-100.0,-41.0,-54.0,-100.0,-100.0,-100.0,-100.0,-68.0,-83.0,-100.0,-80.0,-100.0,-100.0,-100.0,-100.0,-100.0,-73.0,-79.0,-66.0,-100.0,-100.0,-100.0,-100.0,-100.0,-100.0,-100.0,-100.0,-100.0,-72.0,-100.0,-100.0,-100.0,-100.0,-100.0,-100.0,-100.0,-82.0,-66.0,-100.0,-100.0,-100.0,-100.0,-100.0,-100.0,-100.0,-100.0,-100.0,-100.0,-100.0,-100.0,-100.0,-100.0,-100.0,-100.0,-100.0,-100.0,-100.0,-100.0,-100.0,-100.0,-100.0,-100.0,-80.0,-65.0,-100.0,-100.0,-100.0,-100.0,-100.0,-100.0,-100.0,-100.0,-100.0,-100.0,-100.0,-100.0,-100.0,-69.0,-100.0,-65.0,-100.0,-100.0,-100.0,-100.0,-100.0,-100.0,-100.0,-100.0,-100.0,-100.0,-100.0,-100.0,-100.0,-100.0,-100.0,-100.0,-100.0,-100.0,-100.0,-100.0,-100.0,-100.0,-100.0,-100.0,-100.0,-100.0,-100.0,-100.0,-100.0,-100.0,-100.0,-100.0,-100.0,-83.0,-83.0,-100.0,-100.0,-100.0,-100.0,-100.0,-100.0,-100.0,-100.0,-100.0,-87.0,-89.0
2021.01.16 160511,84.0,24.0,41.93871598930481,3.385347547593583,-31.374544967914435,-0.27720246564385026,0.6005733364171123,9.657441422459893,0.0029367263470588233,6.206656737967899e-05,-0.001999195378074866,-0.06210629528458102,0.028705456553096715,-1.4398138344606615,1015.9443491978611,-100.0,-100.0,-100.0,-100.0,-100.0,-100.0,-100.0,-100.0,-100.0,-100.0,-100.0,-100.0,-100.0,-100.0,-100.0,-80.0,-100.0,-100.0,-35.0,-45.0,-100.0,-100.0,-67.0,-74.0,-69.0,-71.0,-56.0,-100.0,-100.0,-100.0,-78.0,-100.0,-100.0,-36.0,-45.0,-100.0,-100.0,-68.0,-74.0,-69.0,-72.0,-57.0,-68.0,-100.0,-100.0,-100.0,-100.0,-100.0,-79.0,-68.0,-75.0,-100.0,-100.0,-100.0,-100.0,-100.0,-100.0,-100.0,-100.0,-100.0,-77.0,-100.0,-100.0,-100.0,-100.0,-100.0,-100.0,-100.0,-100.0,-77.0,-100.0,-100.0,-100.0,-100.0,-100.0,-100.0,-100.0,-100.0,-100.0,-100.0,-100.0,-100.0,-100.0,-100.0,-100.0,-100.0,-100.0,-100.0,-100.0,-100.0,-100.0,-100.0,-100.0,-73.0,-100.0,-72.0,-100.0,-100.0,-100.0,-100.0,-100.0,-100.0,-81.0,-100.0,-100.0,-100.0,-100.0,-100.0,-100.0,-75.0,-72.0,-71.0,-100.0,-100.0,-100.0,-100.0,-100.0,-100.0,-100.0,-100.0,-100.0,-100.0,-100.0,-100.0,-100.0,-100.0,-100.0,-100.0,-100.0,-100.0,-100.0,-100.0,-82.0,-82.0,-100.0,-100.0,-100.0,-100.0,-100.0,-100.0,-100.0,-100.0,-100.0,-100.0,-100.0,-85.0,-84.0,-88.0,-100.0,-88.0,-100.0,-100.0,-100.0,-72.0,-71.0,-100.0,-86.0,-84.0
2021.01.16 160526,85.0,24.0,42.279309821839085,3.4020689189655173,-32.92448237931035,-0.12071454889310344,0.440051519770115,9.696448020114943,0.001913342325287356,-0.003128051125862069,-0.00173780625,-0.0453733237695762,0.012457255734991493,-1.4538934326719963,1015.9309342528734,-100.0,-100.0,-100.0,-100.0,-100.0,-100.0,-100.0,-100.0,-100.0,-100.0,-100.0,-100.0,-100.0,-100.0,-63.0,-76.0,-100.0,-100.0,-40.0,-52.0,-77.0,-100.0,-67.0,-81.0,-100.0,-80.0,-100.0,-73.0,-100.0,-100.0,-77.0,-100.0,-100.0,-41.0,-53.0,-75.0,-100.0,-67.0,-82.0,-100.0,-80.0,-100.0,-74.0,-100.0,-100.0,-100.0,-100.0,-100.0,-75.0,-74.0,-100.0,-100.0,-100.0,-100.0,-100.0,-100.0,-74.0,-100.0,-100.0,-100.0,-72.0,-100.0,-100.0,-100.0,-100.0,-100.0,-100.0,-100.0,-100.0,-100.0,-82.0,-100.0,-100.0,-100.0,-100.0,-100.0,-100.0,-100.0,-100.0,-100.0,-100.0,-100.0,-100.0,-100.0,-100.0,-100.0,-79.0,-100.0,-100.0,-100.0,-100.0,-100.0,-100.0,-74.0,-100.0,-56.0,-100.0,-100.0,-100.0,-100.0,-80.0,-100.0,-100.0,-100.0,-100.0,-100.0,-100.0,-81.0,-100.0,-71.0,-100.0,-56.0,-80.0,-100.0,-100.0,-100.0,-100.0,-100.0,-100.0,-100.0,-100.0,-100.0,-100.0,-100.0,-100.0,-100.0,-100.0,-100.0,-100.0,-100.0,-100.0,-100.0,-79.0,-81.0,-100.0,-100.0,-100.0,-100.0,-100.0,-100.0,-100.0,-100.0,-100.0,-100.0,-100.0,-85.0,-84.0,-100.0,-100.0,-100.0,-100.0,-100.0,-82.0,-76.0,-76.0,-100.0,-86.0,-85.0
2021.01.16 160612,88.0,24.0,40.17912984782609,-0.027065217065217386,-39.27782560869565,-0.10388753501847826,0.6125122648369565,9.658261605978261,0.005909457434510869,-0.004133299991032608,0.0008233401165760871,-0.06333079301428209,0.010788151455252599,-1.5081306281297102,1015.9867029891304,-100.0,-100.0,-100.0,-100.0,-100.0,-100.0,-100.0,-100.0,-100.0,-100.0,-100.0,-100.0,-100.0,-100.0,-67.0,-82.0,-80.0,-100.0,-41.0,-63.0,-75.0,-100.0,-67.0,-85.0,-75.0,-88.0,-54.0,-100.0,-100.0,-68.0,-83.0,-100.0,-100.0,-41.0,-63.0,-75.0,-100.0,-67.0,-85.0,-75.0,-87.0,-54.0,-76.0,-100.0,-100.0,-100.0,-100.0,-100.0,-75.0,-77.0,-100.0,-100.0,-100.0,-100.0,-100.0,-100.0,-100.0,-100.0,-100.0,-100.0,-74.0,-100.0,-100.0,-100.0,-100.0,-100.0,-100.0,-100.0,-77.0,-100.0,-100.0,-100.0,-100.0,-100.0,-100.0,-100.0,-100.0,-100.0,-100.0,-100.0,-100.0,-79.0,-81.0,-100.0,-100.0,-100.0,-100.0,-100.0,-100.0,-100.0,-100.0,-100.0,-100.0,-74.0,-100.0,-68.0,-100.0,-100.0,-100.0,-100.0,-80.0,-100.0,-74.0,-80.0,-100.0,-100.0,-100.0,-100.0,-100.0,-78.0,-74.0,-66.0,-100.0,-81.0,-100.0,-100.0,-100.0,-100.0,-100.0,-100.0,-100.0,-100.0,-100.0,-100.0,-100.0,-100.0,-81.0,-100.0,-100.0,-100.0,-100.0,-100.0,-83.0,-79.0,-100.0,-100.0,-100.0,-100.0,-100.0,-100.0,-100.0,-100.0,-100.0,-100.0,-100.0,-100.0,-100.0,-100.0,-79.0,-100.0,-100.0,-100.0,-100.0,-79.0,-79.0,-100.0,-100.0,-100.0
