Timestamp,True_X,True_Y,Mean_Mag_x,Mean_Mag_y,Mean_Mag_z,Mean_Acc_x,Mean_Acc_y,Mean_Acc_z,Mean_Gyro_x,Mean_Gyro_y,Mean_Gyro_z,Mean_Orn_x,Mean_Orn_y,Mean_Orn_z,Mean_Pressure,00:1a:ab:a0:de:a2,00:1a:ab:a0:de:a3,00:1a:ab:a0:de:a4,00:1a:ac:a0:de:b3,00:1a:ac:a0:de:b5,00:1a:ac:a0:de:b7,00:1a:ac:a0:de:b8,00:1a:ac:a0:de:d3,00:1a:ac:a0:de:f6,00:1a:ac:a0:de:g5,00:1a:ac:a0:de:g8,00:1a:ac:a0:de:g9,00:1a:ac:a0:de:h2,00:1a:ac:a0:de:h3,00:1a:ac:a0:de:h4,00:1a:ac:a0:de:h7,00:1a:ac:a0:de:i1,00:1a:ac:a0:de:i2,00:1a:ac:a0:de:i8,00:1a:ac:a0:de:j7,00:1a:ac:a0:de:k7,00:1a:ac:a0:de:k8,00:1a:ac:a0:de:l2,00:1a:ac:a0:de:l5,00:1a:ac:a0:de:l7,00:1a:ac:a0:de:m1,00:1a:ac:a0:de:m2,00:1a:ac:a0:de:m3,00:1a:ac:a0:de:n2,00:1a:ac:a0:de:n6,00:1a:ac:a0:de:n8,00:1a:ac:a0:de:p1,00:1a:ac:a0:de:p2,00:1a:ac:a0:de:p3,00:1a:ac:a0:de:p4,00:1a:ac:a0:de:p5,00:1a:ac:a0:de:p6,00:1a:ac:a0:de:p7,00:1a:ac:a0:de:p8,00:1a:ac:a0:de:r1,00:1a:ac:a0:de:r2,00:1a:ac:a0:de:r5,00:1a:ac:a0:de:r6,00:1a:ac:a0:de:r9,00:1a:ac:a0:de:s1,00:1a:ac:a0:de:s2,00:1a:ac:a0:de:s3,00:1a:ac:a0:de:s4,00:1a:ac:a0:de:s5,00:1a:ac:a0:de:s6,00:1a:ac:a0:de:s7,00:1a:ac:a0:de:t3,00:1a:ac:a0:de:t5,00:1a:ac:a0:de:t7,00:1a:ac:a0:de:t8,00:1a:ac:a0:de:t9,00:1a:ac:a0:de:u1,00:1a:ac:a0:de:u2,00:1a:ac:a0:de:u3,00:1a:ac:a0:de:u4,00:1a:ac:a0:de:u5,00:1a:ac:a0:de:v7,00:1a:ac:a0:de:v8,00:1a:ac:a0:de:w2,00:1a:ac:a0:de:w3,00:1a:ac:a0:de:w6,00:1a:ac:a0:de:w7,00:1a:ac:a0:de:w8,00:1a:ac:a0:de:w9,00:1a:ac:a0:de:x1,00:1a:ac:a0:de:x2,00:1a:ac:a0:de:x3,00:1a:ac:a0:de:x4,00:1a:ac:a0:de:x7,00:1a:ac:a0:de:b6,00:1a:ac:a0:de:i3,00:1a:ac:a0:de:n3,00:1a:ac:a0:de:f7,00:1a:ac:a0:de:e3,00:1a:ac:a0:de:e9,00:1a:ac:a0:de:f5,00:1a:ac:a0:de:k9,00:1a:ac:a0:de:g2,00:1a:ac:a0:de:j8,00:1a:ac:a0:de:n4,00:1a:ac:a0:de:t1,00:1a:ac:a0:de:t6,00:1a:ac:a0:de:f8,00:1a:ac:a0:de:j9,00:1a:ac:a0:de:n9,00:1a:ab:a0:de:a7,00:1a:ac:a0:de:h6,00:1a:ac:a0:de:l1,00:1a:ac:a0:de:f2,00:1a:ac:a0:de:h9,00:1a:ac:a0:de:k6,00:1a:ac:a0:de:m9,00:1a:ac:a0:de:d4,70:5d:cc:05:03:10,00:1a:ac:a0:de:k4,00:1a:ac:a0:de:f9,00:1a:ac:a0:de:d5,00:1a:ac:a0:de:e8,00:1a:ac:a0:de:t4,90:9f:33:a4:06:5c,00:1a:ac:a0:de:i9,00:1a:ac:a0:de:f3,00:1a:ac:a0:de:d6,00:1a:ac:a0:de:n7,00:1a:ac:a0:de:n5,00:1a:ac:a0:de:t2,00:1a:ac:a0:de:b2,00:1a:ac:a0:de:i6,00:1a:ac:a0:de:l8,00:1a:ac:a0:de:l9,00:1a:ac:a0:de:b1,00:1a:ac:a0:de:g1,00:1a:ac:a0:de:l4,00:1a:ab:a0:de:a9,00:1a:ac:a0:de:k1,00:1a:ac:a0:de:k2,00:1a:ac:a0:de:w4,00:1a:ac:a0:de:k3,00:1a:ac:a0:de:r7,00:1a:ac:a0:de:r4,00:1a:ac:a0:de:w1,00:1a:ac:a0:de:q2,00:1a:ac:a0:de:v9,00:1a:ac:a0:de:b4,00:1a:ac:a0:de:r3,00:1a:ac:a0:de:i7,00:1a:ac:a0:de:j1,00:1a:ac:a0:de:h5,00:1a:ac:a0:de:r8,00:1a:ac:a0:de:w5,00:1a:ac:a0:de:j5,00:1a:ac:a0:de:c2,00:1a:ac:a0:de:j2,00:1a:ac:a0:de:j4,00:1a:ac:a0:de:u8,00:1a:ab:a0:de:a8,00:1a:ac:a0:de:m4,00:1a:ac:a0:de:q4,00:1a:ac:a0:de:c1,00:1a:ac:a0:de:v1,00:1a:ac:a0:de:v3,00:1a:ac:a0:de:f1,00:1a:ac:a0:de:q5,00:1a:ac:a0:de:v2,00:1a:ac:a0:de:k5,00:1a:ac:a0:de:m5,00:1a:ac:a0:de:m6,00:1a:ac:a0:de:m7,00:1a:ac:a0:de:s8,00:1a:ac:a0:de:p9,00:1a:ac:a0:de:u6,00:1a:ac:a0:de:q6,00:1a:ac:a0:de:q3,00:1a:ac:a0:de:u9,00:1a:ac:a0:de:x5,00:1a:ac:a0:de:q8,00:1a:ac:a0:de:v5,00:1a:ac:a0:de:q9,00:1a:ac:a0:de:v6,00:1a:ac:a0:de:j3
2021.01.10 212408,1.0,27.0,20.197590108433733,-39.2616861566265,-19.857831120481926,-0.3907427636746988,1.2476767963855422,9.905244650602409,-0.000516836136626506,-0.0011556760823493977,-0.0026935403248192773,-0.12521343251847356,0.03946662587618608,-2.65214507694704,1021.2348460843375,-91.0,-92.0,-83.0,-87.0,-74.0,-68.0,-73.0,-80.0,-69.0,-90.0,-91.0,-81.0,-86.0,-76.0,-72.0,-89.0,-89.0,-76.0,-59.0,-88.0,-62.0,-81.0,-83.0,-89.0,-87.0,-89.0,-73.0,-89.0,-85.0,-79.0,-77.0,-74.0,-84.0,-64.0,-83.0,-55.0,-54.0,-63.0,-82.0,-68.0,-78.0,-47.0,-51.0,-75.0,-82.0,-39.0,-46.0,-58.0,-65.0,-61.0,-69.0,-79.0,-77.0,-71.0,-84.0,-64.0,-83.0,-53.0,-54.0,-62.0,-82.0,-68.0,-79.0,-48.0,-51.0,-75.0,-83.0,-38.0,-46.0,-59.0,-65.0,-60.0,-69.0,-100.0,-100.0,-100.0,-100.0,-100.0,-100.0,-100.0,-100.0,-100.0,-100.0,-100.0,-100.0,-100.0,-100.0,-100.0,-100.0,-100.0,-100.0,-100.0,-100.0,-100.0,-100.0,-100.0,-100.0,-100.0,-100.0,-100.0,-100.0,-100.0,-100.0,-100.0,-100.0,-100.0,-100.0,-100.0,-100.0,-100.0,-100.0,-100.0,-100.0,-100.0,-100.0,-100.0,-100.0,-100.0,-100.0,-100.0,-100.0,-100.0,-100.0,-100.0,-100.0,-100.0,-100.0,-100.0,-100.0,-100.0,-100.0,-100.0,-100.0,-100.0,-100.0,-100.0,-100.0,-100.0,-100.0,-100.0,-100.0,-100.0,-100.0,-100.0,-100.0,-100.0,-100.0,-100.0,-100.0,-100.0,-100.0,-100.0,-100.0,-100.0,-100.0,-100.0,-100.0,-100.0,-100.0,-100.0,-100.0,-100.0,-100.0,-100.0,-100.0
2021.01.10 212428,1.0,26.0,7.711874858125,-39.02287444374999,-29.068124543750002,-0.33588682668750003,0.8883358103749999,9.955349737499999,0.0006548475651874998,0.0007177666606249999,-0.0036387715267499994,-0.08896227313671258,0.03373810749035324,-2.958608682453632,1021.2381541249999,-100.0,-100.0,-100.0,-100.0,-63.0,-70.0,-77.0,-78.0,-100.0,-100.0,-100.0,-88.0,-100.0,-85.0,-70.0,-87.0,-100.0,-100.0,-57.0,-100.0,-64.0,-81.0,-100.0,-100.0,-100.0,-100.0,-85.0,-88.0,-87.0,-100.0,-100.0,-100.0,-100.0,-58.0,-100.0,-100.0,-73.0,-74.0,-90.0,-100.0,-84.0,-50.0,-60.0,-100.0,-100.0,-46.0,-51.0,-82.0,-78.0,-83.0,-84.0,-100.0,-100.0,-100.0,-100.0,-58.0,-100.0,-100.0,-73.0,-74.0,-100.0,-100.0,-83.0,-49.0,-60.0,-100.0,-100.0,-46.0,-51.0,-81.0,-78.0,-83.0,-84.0,-79.0,-100.0,-100.0,-100.0,-100.0,-100.0,-100.0,-100.0,-100.0,-100.0,-100.0,-100.0,-100.0,-100.0,-100.0,-100.0,-100.0,-100.0,-100.0,-100.0,-100.0,-100.0,-100.0,-100.0,-100.0,-100.0,-100.0,-100.0,-100.0,-100.0,-100.0,-100.0,-100.0,-100.0,-100.0,-100.0,-100.0,-100.0,-100.0,-100.0,-100.0,-100.0,-100.0,-100.0,-100.0,-100.0,-100.0,-100.0,-100.0,-100.0,-100.0,-100.0,-100.0,-100.0,-100.0,-100.0,-100.0,-100.0,-100.0,-100.0,-100.0,-100.0,-100.0,-100.0,-100.0,-100.0,-100.0,-100.0,-100.0,-100.0,-100.0,-100.0,-100.0,-100.0,-100.0,-100.0,-100.0,-100.0,-100.0,-100.0,-100.0,-100.0,-100.0,-100.0,-100.0,-100.0,-100.0,-100.0,-100.0,-100.0,-100.0,-100.0
2021.01.10 212446,1.0,25.0,2.9447272242424245,-42.38909041212121,-30.93709041818182,-0.20564643982424244,0.8145468003636362,9.969223393939394,0.0005937609771515153,-2.175041424242463e-05,-0.0020367542997575755,-0.08151825372919888,0.020657521045315173,-3.0841089595447886,1021.2426091515152,-100.0,-100.0,-83.0,-100.0,-100.0,-63.0,-74.0,-73.0,-77.0,-100.0,-100.0,-87.0,-100.0,-100.0,-69.0,-85.0,-100.0,-100.0,-60.0,-92.0,-61.0,-76.0,-88.0,-100.0,-100.0,-100.0,-100.0,-88.0,-86.0,-100.0,-100.0,-87.0,-100.0,-71.0,-87.0,-64.0,-64.0,-65.0,-83.0,-100.0,-87.0,-46.0,-56.0,-100.0,-88.0,-34.0,-39.0,-71.0,-75.0,-74.0,-85.0,-100.0,-100.0,-85.0,-91.0,-70.0,-87.0,-64.0,-64.0,-65.0,-82.0,-82.0,-87.0,-46.0,-56.0,-100.0,-91.0,-33.0,-39.0,-70.0,-74.0,-74.0,-85.0,-100.0,-78.0,-100.0,-100.0,-100.0,-100.0,-100.0,-100.0,-100.0,-100.0,-100.0,-100.0,-100.0,-100.0,-100.0,-100.0,-100.0,-100.0,-100.0,-100.0,-100.0,-100.0,-100.0,-100.0,-100.0,-100.0,-100.0,-100.0,-100.0,-100.0,-100.0,-100.0,-100.0,-100.0,-100.0,-100.0,-100.0,-100.0,-100.0,-100.0,-100.0,-100.0,-100.0,-100.0,-100.0,-100.0,-100.0,-100.0,-100.0,-100.0,-100.0,-100.0,-100.0,-100.0,-100.0,-100.0,-100.0,-100.0,-100.0,-100.0,-100.0,-100.0,-100.0,-100.0,-100.0,-100.0,-100.0,-100.0,-100.0,-100.0,-100.0,-100.0,-100.0,-100.0,-100.0,-100.0,-100.0,-100.0,-100.0,-100.0,-100.0,-100.0,-100.0,-100.0,-100.0,-100.0,-100.0,-100.0,-100.0,-100.0,-100.0,-100.0
2021.01.10 212506,1.0,24.0,32.717142484472056,-3.2627328708074534,-35.81590008695652,-0.30048892389440995,0.8684228067080744,9.967380850931677,-0.00015293637689441008,-4.2400157142857104e-05,-0.00567950254726708,-0.08687589322187882,0.0301832706285698,-1.571528835326248,1021.2460511801244,-100.0,-100.0,-100.0,-100.0,-68.0,-57.0,-75.0,-100.0,-71.0,-100.0,-100.0,-79.0,-100.0,-100.0,-69.0,-100.0,-86.0,-78.0,-56.0,-100.0,-72.0,-79.0,-100.0,-100.0,-100.0,-100.0,-75.0,-91.0,-73.0,-85.0,-83.0,-76.0,-84.0,-63.0,-79.0,-56.0,-58.0,-65.0,-81.0,-100.0,-72.0,-41.0,-55.0,-77.0,-86.0,-42.0,-42.0,-64.0,-65.0,-61.0,-70.0,-100.0,-82.0,-75.0,-84.0,-61.0,-80.0,-55.0,-58.0,-66.0,-82.0,-100.0,-72.0,-41.0,-55.0,-76.0,-100.0,-41.0,-43.0,-63.0,-65.0,-61.0,-70.0,-100.0,-70.0,-92.0,-82.0,-100.0,-100.0,-100.0,-100.0,-100.0,-100.0,-100.0,-100.0,-100.0,-100.0,-100.0,-100.0,-100.0,-100.0,-100.0,-100.0,-100.0,-100.0,-100.0,-100.0,-100.0,-100.0,-100.0,-100.0,-100.0,-100.0,-100.0,-100.0,-100.0,-100.0,-100.0,-100.0,-100.0,-100.0,-100.0,-100.0,-100.0,-100.0,-100.0,-100.0,-100.0,-100.0,-100.0,-100.0,-100.0,-100.0,-100.0,-100.0,-100.0,-100.0,-100.0,-100.0,-100.0,-100.0,-100.0,-100.0,-100.0,-100.0,-100.0,-100.0,-100.0,-100.0,-100.0,-100.0,-100.0,-100.0,-100.0,-100.0,-100.0,-100.0,-100.0,-100.0,-100.0,-100.0,-100.0,-100.0,-100.0,-100.0,-100.0,-100.0,-100.0,-100.0,-100.0,-100.0,-100.0,-100.0,-100.0,-100.0
2021.01.10 212519,2.0,24.0,33.4699994382716,-4.009629564814814,-32.145555086419755,-0.19882826560864195,0.9152189358641973,9.965060398148148,-0.002014105629938272,-0.00024264924018518497,-0.004482340582777778,-0.09158148326807547,0.019954324487228774,-1.599975581522341,1021.2501693827159,-100.0,-100.0,-85.0,-86.0,-70.0,-69.0,-79.0,-100.0,-77.0,-92.0,-100.0,-81.0,-100.0,-100.0,-100.0,-100.0,-100.0,-79.0,-66.0,-100.0,-65.0,-80.0,-100.0,-100.0,-100.0,-81.0,-82.0,-91.0,-86.0,-80.0,-80.0,-73.0,-85.0,-63.0,-79.0,-53.0,-60.0,-69.0,-84.0,-71.0,-76.0,-46.0,-55.0,-79.0,-81.0,-40.0,-45.0,-65.0,-69.0,-56.0,-80.0,-77.0,-82.0,-74.0,-85.0,-62.0,-79.0,-52.0,-60.0,-70.0,-84.0,-71.0,-76.0,-45.0,-55.0,-100.0,-81.0,-39.0,-45.0,-64.0,-69.0,-57.0,-80.0,-100.0,-81.0,-100.0,-100.0,-89.0,-100.0,-100.0,-100.0,-100.0,-100.0,-100.0,-100.0,-100.0,-100.0,-100.0,-100.0,-100.0,-100.0,-100.0,-100.0,-100.0,-100.0,-100.0,-100.0,-100.0,-100.0,-100.0,-100.0,-100.0,-100.0,-100.0,-100.0,-100.0,-100.0,-100.0,-100.0,-100.0,-100.0,-100.0,-100.0,-100.0,-100.0,-100.0,-100.0,-100.0,-100.0,-100.0,-100.0,-100.0,-100.0,-100.0,-100.0,-100.0,-100.0,-100.0,-100.0,-100.0,-100.0,-100.0,-100.0,-100.0,-100.0,-100.0,-100.0,-100.0,-100.0,-100.0,-100.0,-100.0,-100.0,-100.0,-100.0,-100.0,-100.0,-100.0,-100.0,-100.0,-100.0,-100.0,-100.0,-100.0,-100.0,-100.0,-100.0,-100.0,-100.0,-100.0,-100.0,-100.0,-100.0,-100.0,-100.0
2021.01.10 212533,3.0,24.0,35.19592554938272,-4.688518445679013,-30.191851432098762,-0.21647495744444448,0.905021100925926,9.966730466049382,-0.0018406500603703705,-0.002829399596049382,-0.0034340657141358026,-0.09052112376616321,0.021732883453139135,-1.624412116445141,1021.253322160494,-100.0,-100.0,-100.0,-100.0,-69.0,-62.0,-72.0,-76.0,-75.0,-100.0,-100.0,-100.0,-100.0,-100.0,-70.0,-100.0,-89.0,-71.0,-57.0,-100.0,-69.0,-77.0,-100.0,-90.0,-100.0,-87.0,-79.0,-90.0,-100.0,-100.0,-82.0,-100.0,-84.0,-67.0,-79.0,-47.0,-58.0,-71.0,-80.0,-70.0,-70.0,-41.0,-53.0,-100.0,-83.0,-35.0,-41.0,-58.0,-66.0,-55.0,-79.0,-100.0,-81.0,-100.0,-84.0,-67.0,-80.0,-47.0,-58.0,-63.0,-80.0,-71.0,-70.0,-43.0,-53.0,-100.0,-83.0,-36.0,-41.0,-59.0,-66.0,-56.0,-77.0,-100.0,-79.0,-100.0,-87.0,-100.0,-100.0,-100.0,-100.0,-100.0,-100.0,-100.0,-100.0,-100.0,-100.0,-100.0,-100.0,-100.0,-100.0,-100.0,-100.0,-100.0,-100.0,-100.0,-100.0,-100.0,-100.0,-100.0,-100.0,-100.0,-100.0,-100.0,-100.0,-100.0,-100.0,-100.0,-100.0,-100.0,-100.0,-100.0,-100.0,-100.0,-100.0,-100.0,-100.0,-100.0,-100.0,-100.0,-100.0,-100.0,-100.0,-100.0,-100.0,-100.0,-100.0,-100.0,-100.0,-100.0,-100.0,-100.0,-100.0,-100.0,-100.0,-100.0,-100.0,-100.0,-100.0,-100.0,-100.0,-100.0,-100.0,-100.0,-100.0,-100.0,-100.0,-100.0,-100.0,-100.0,-100.0,-100.0,-100.0,-100.0,-100.0,-100.0,-100.0,-100.0,-100.0,-100.0,-100.0,-100.0,-100.0,-100.0,-100.0
2021.01.10 212547,4.0,24.0,34.32037689937106,-7.165660232075473,-28.53282979245283,-0.2397135894012579,0.9140407592452833,9.963089484276727,0.0006083603045911947,-0.0006562960292452835,-0.003769949062138364,-0.09146188461930495,0.02405741515769999,-1.70191645922151,1021.2680491194968,-100.0,-100.0,-81.0,-100.0,-64.0,-57.0,-73.0,-78.0,-77.0,-100.0,-100.0,-82.0,-100.0,-75.0,-71.0,-86.0,-100.0,-76.0,-47.0,-100.0,-67.0,-78.0,-100.0,-100.0,-100.0,-83.0,-79.0,-88.0,-100.0,-100.0,-82.0,-100.0,-84.0,-60.0,-83.0,-48.0,-62.0,-65.0,-81.0,-69.0,-73.0,-43.0,-55.0,-100.0,-83.0,-38.0,-39.0,-57.0,-60.0,-60.0,-75.0,-100.0,-82.0,-100.0,-85.0,-60.0,-83.0,-48.0,-62.0,-63.0,-80.0,-69.0,-73.0,-44.0,-56.0,-100.0,-84.0,-37.0,-40.0,-58.0,-60.0,-59.0,-75.0,-100.0,-70.0,-90.0,-87.0,-100.0,-92.0,-90.0,-100.0,-100.0,-100.0,-100.0,-100.0,-100.0,-100.0,-100.0,-100.0,-100.0,-100.0,-100.0,-100.0,-100.0,-100.0,-100.0,-100.0,-100.0,-100.0,-100.0,-100.0,-100.0,-100.0,-100.0,-100.0,-100.0,-100.0,-100.0,-100.0,-100.0,-100.0,-100.0,-100.0,-100.0,-100.0,-100.0,-100.0,-100.0,-100.0,-100.0,-100.0,-100.0,-100.0,-100.0,-100.0,-100.0,-100.0,-100.0,-100.0,-100.0,-100.0,-100.0,-100.0,-100.0,-100.0,-100.0,-100.0,-100.0,-100.0,-100.0,-100.0,-100.0,-100.0,-100.0,-100.0,-100.0,-100.0,-100.0,-100.0,-100.0,-100.0,-100.0,-100.0,-100.0,-100.0,-100.0,-100.0,-100.0,-100.0,-100.0,-100.0,-100.0,-100.0,-100.0,-100.0
2021.01.10 212600,5.0,24.0,30.51019316129032,-11.42438690645161,-27.10258029677419,-0.2822000415354839,0.8306279964516131,9.96850908064516,0.0025918814750322578,-0.000331542198,-0.004662340311677418,-0.08309568080209911,0.02831878991677391,-1.866413886316361,1021.2733587096776,-100.0,-100.0,-79.0,-100.0,-67.0,-64.0,-66.0,-72.0,-73.0,-100.0,-100.0,-80.0,-88.0,-100.0,-71.0,-100.0,-100.0,-68.0,-100.0,-100.0,-62.0,-73.0,-100.0,-100.0,-100.0,-82.0,-100.0,-83.0,-100.0,-80.0,-100.0,-100.0,-85.0,-70.0,-82.0,-52.0,-58.0,-62.0,-78.0,-100.0,-74.0,-44.0,-57.0,-76.0,-81.0,-38.0,-41.0,-57.0,-65.0,-60.0,-76.0,-80.0,-100.0,-100.0,-85.0,-69.0,-82.0,-54.0,-58.0,-62.0,-77.0,-100.0,-75.0,-45.0,-57.0,-75.0,-88.0,-37.0,-41.0,-57.0,-65.0,-60.0,-74.0,-100.0,-70.0,-81.0,-100.0,-100.0,-100.0,-89.0,-82.0,-91.0,-100.0,-100.0,-100.0,-100.0,-100.0,-100.0,-100.0,-100.0,-100.0,-100.0,-100.0,-100.0,-100.0,-100.0,-100.0,-100.0,-100.0,-100.0,-100.0,-100.0,-100.0,-100.0,-100.0,-100.0,-100.0,-100.0,-100.0,-100.0,-100.0,-100.0,-100.0,-100.0,-100.0,-100.0,-100.0,-100.0,-100.0,-100.0,-100.0,-100.0,-100.0,-100.0,-100.0,-100.0,-100.0,-100.0,-100.0,-100.0,-100.0,-100.0,-100.0,-100.0,-100.0,-100.0,-100.0,-100.0,-100.0,-100.0,-100.0,-100.0,-100.0,-100.0,-100.0,-100.0,-100.0,-100.0,-100.0,-100.0,-100.0,-100.0,-100.0,-100.0,-100.0,-100.0,-100.0,-100.0,-100.0,-100.0,-100.0,-100.0,-100.0,-100.0,-100.0
2021.01.10 212614,6.0,24.0,27.464347465838514,-11.373912804347826,-27.198260490683232,-0.20568456417391304,0.7958658707453415,9.974489366459627,0.00016577602236024855,-0.002671776688819876,-0.005292494683043479,-0.07962040593905474,0.02066301171572424,-1.8980171665641832,1021.2797030434782,-100.0,-100.0,-74.0,-100.0,-70.0,-55.0,-61.0,-71.0,-100.0,-100.0,-100.0,-80.0,-100.0,-79.0,-63.0,-81.0,-85.0,-70.0,-64.0,-100.0,-60.0,-72.0,-100.0,-100.0,-100.0,-83.0,-73.0,-84.0,-83.0,-100.0,-100.0,-72.0,-87.0,-62.0,-80.0,-49.0,-59.0,-59.0,-78.0,-100.0,-68.0,-50.0,-62.0,-100.0,-90.0,-29.0,-35.0,-61.0,-63.0,-59.0,-71.0,-100.0,-100.0,-72.0,-87.0,-63.0,-80.0,-50.0,-59.0,-58.0,-78.0,-100.0,-68.0,-52.0,-62.0,-100.0,-89.0,-28.0,-35.0,-62.0,-63.0,-59.0,-71.0,-100.0,-68.0,-89.0,-84.0,-100.0,-100.0,-87.0,-100.0,-100.0,-88.0,-90.0,-100.0,-100.0,-100.0,-100.0,-100.0,-100.0,-100.0,-100.0,-100.0,-100.0,-100.0,-100.0,-100.0,-100.0,-100.0,-100.0,-100.0,-100.0,-100.0,-100.0,-100.0,-100.0,-100.0,-100.0,-100.0,-100.0,-100.0,-100.0,-100.0,-100.0,-100.0,-100.0,-100.0,-100.0,-100.0,-100.0,-100.0,-100.0,-100.0,-100.0,-100.0,-100.0,-100.0,-100.0,-100.0,-100.0,-100.0,-100.0,-100.0,-100.0,-100.0,-100.0,-100.0,-100.0,-100.0,-100.0,-100.0,-100.0,-100.0,-100.0,-100.0,-100.0,-100.0,-100.0,-100.0,-100.0,-100.0,-100.0,-100.0,-100.0,-100.0,-100.0,-100.0,-100.0,-100.0,-100.0,-100.0,-100.0,-100.0,-100.0,-100.0
2021.01.10 212629,7.0,24.0,26.737646673202615,-8.012941011111112,-28.750587797385617,-0.2567194655555555,0.9482580180392156,9.968899568627451,-0.0006894551412418301,0.0008233705671241828,-0.00039282622581699334,-0.09481694442189592,0.025759412636189048,-1.7675454281513987,1021.2880356862747,-100.0,-100.0,-75.0,-100.0,-68.0,-56.0,-70.0,-65.0,-72.0,-100.0,-100.0,-83.0,-86.0,-76.0,-65.0,-83.0,-84.0,-100.0,-59.0,-100.0,-59.0,-76.0,-100.0,-100.0,-100.0,-82.0,-69.0,-87.0,-80.0,-80.0,-100.0,-70.0,-90.0,-66.0,-76.0,-50.0,-56.0,-59.0,-74.0,-65.0,-68.0,-55.0,-71.0,-77.0,-80.0,-31.0,-39.0,-61.0,-67.0,-62.0,-70.0,-100.0,-100.0,-69.0,-90.0,-66.0,-76.0,-47.0,-57.0,-57.0,-74.0,-66.0,-68.0,-55.0,-71.0,-77.0,-82.0,-30.0,-39.0,-60.0,-67.0,-61.0,-70.0,-100.0,-100.0,-100.0,-100.0,-100.0,-100.0,-100.0,-100.0,-90.0,-100.0,-88.0,-89.0,-87.0,-100.0,-100.0,-100.0,-100.0,-100.0,-100.0,-100.0,-100.0,-100.0,-100.0,-100.0,-100.0,-100.0,-100.0,-100.0,-100.0,-100.0,-100.0,-100.0,-100.0,-100.0,-100.0,-100.0,-100.0,-100.0,-100.0,-100.0,-100.0,-100.0,-100.0,-100.0,-100.0,-100.0,-100.0,-100.0,-100.0,-100.0,-100.0,-100.0,-100.0,-100.0,-100.0,-100.0,-100.0,-100.0,-100.0,-100.0,-100.0,-100.0,-100.0,-100.0,-100.0,-100.0,-100.0,-100.0,-100.0,-100.0,-100.0,-100.0,-100.0,-100.0,-100.0,-100.0,-100.0,-100.0,-100.0,-100.0,-100.0,-100.0,-100.0,-100.0,-100.0,-100.0,-100.0,-100.0,-100.0,-100.0,-100.0,-100.0
2021.01.10 212642,8.0,24.0,25.145184919753085,-5.855555448765433,-30.954444018518515,-0.21023801879629628,0.8298822512962962,9.976499691358027,-0.0003059454983950618,-0.0010043453177160495,-0.006186730053765431,-0.08296407292378533,0.021076848675830262,-1.701070385950583,1021.2907096296295,-93.0,-100.0,-71.0,-100.0,-100.0,-57.0,-70.0,-65.0,-68.0,-87.0,-100.0,-81.0,-100.0,-70.0,-73.0,-80.0,-100.0,-68.0,-100.0,-83.0,-60.0,-73.0,-100.0,-100.0,-100.0,-79.0,-68.0,-80.0,-71.0,-86.0,-100.0,-100.0,-85.0,-68.0,-78.0,-47.0,-59.0,-55.0,-79.0,-68.0,-70.0,0.0,-76.0,-100.0,-84.0,-38.0,-46.0,-64.0,-69.0,-100.0,-73.0,-86.0,-100.0,-73.0,-87.0,-66.0,-78.0,-47.0,-59.0,-56.0,-79.0,-69.0,-70.0,0.0,-75.0,-100.0,-82.0,-38.0,-46.0,-63.0,-69.0,-100.0,-73.0,-100.0,-100.0,-100.0,-86.0,-90.0,-100.0,-100.0,-100.0,-100.0,-100.0,-89.0,-100.0,-100.0,-100.0,-100.0,-100.0,-100.0,-100.0,-100.0,-100.0,-100.0,-100.0,-100.0,-100.0,-100.0,-100.0,-100.0,-100.0,-100.0,-100.0,-100.0,-100.0,-100.0,-100.0,-100.0,-100.0,-100.0,-100.0,-100.0,-100.0,-100.0,-100.0,-100.0,-100.0,-100.0,-100.0,-100.0,-100.0,-100.0,-100.0,-100.0,-100.0,-100.0,-100.0,-100.0,-100.0,-100.0,-100.0,-100.0,-100.0,-100.0,-100.0,-100.0,-100.0,-100.0,-100.0,-100.0,-100.0,-100.0,-100.0,-100.0,-100.0,-100.0,-100.0,-100.0,-100.0,-100.0,-100.0,-100.0,-100.0,-100.0,-100.0,-100.0,-100.0,-100.0,-100.0,-100.0,-100.0,-100.0,-100.0,-100.0,-100.0
2021.01.10 212656,9.0,24.0,24.24708048447205,-3.81503100310559,-32.959005807453416,-0.3175462734347826,0.8792937086956523,9.970622826086956,-0.0032376161121118008,-0.002303739912111802,-0.003911408172111802,-0.08792132310430452,0.03182058066262726,-1.6056744726548284,1021.2981046583852,-100.0,-100.0,-63.0,-89.0,-100.0,-60.0,-71.0,-72.0,-72.0,-100.0,-100.0,-100.0,-84.0,-100.0,-67.0,-100.0,-83.0,-68.0,-64.0,-100.0,-68.0,-74.0,-100.0,-100.0,-100.0,-83.0,-69.0,-81.0,-100.0,-78.0,-72.0,-72.0,-88.0,-60.0,-80.0,-47.0,-54.0,-64.0,-76.0,-100.0,-70.0,-55.0,-74.0,-100.0,-82.0,-43.0,-48.0,-58.0,-66.0,-62.0,-74.0,-77.0,-73.0,-72.0,-87.0,-61.0,-81.0,-47.0,-54.0,-64.0,-76.0,-100.0,-70.0,-57.0,-74.0,-100.0,-82.0,-43.0,-48.0,-58.0,-66.0,-63.0,-74.0,-100.0,-69.0,-85.0,-81.0,-100.0,-100.0,-100.0,-100.0,-100.0,-100.0,-100.0,-86.0,-100.0,-90.0,-100.0,-100.0,-100.0,-100.0,-100.0,-100.0,-100.0,-100.0,-100.0,-100.0,-100.0,-100.0,-100.0,-100.0,-100.0,-100.0,-100.0,-100.0,-100.0,-100.0,-100.0,-100.0,-100.0,-100.0,-100.0,-100.0,-100.0,-100.0,-100.0,-100.0,-100.0,-100.0,-100.0,-100.0,-100.0,-100.0,-100.0,-100.0,-100.0,-100.0,-100.0,-100.0,-100.0,-100.0,-100.0,-100.0,-100.0,-100.0,-100.0,-100.0,-100.0,-100.0,-100.0,-100.0,-100.0,-100.0,-100.0,-100.0,-100.0,-100.0,-100.0,-100.0,-100.0,-100.0,-100.0,-100.0,-100.0,-100.0,-100.0,-100.0,-100.0,-100.0,-100.0,-100.0,-100.0,-100.0,-100.0,-100.0
2021.01.10 212709,10.0,24.0,23.313128496932517,-2.4644171466257667,-34.66417136809816,-0.34276320699386503,0.8375408323926379,9.97471045398773,-0.0010267182385889563,-0.00012938723993864996,-0.004761447335644172,-0.0837182213375173,0.0343672382685304,-1.5461639816775643,1021.3047999386501,-100.0,-100.0,-100.0,-89.0,-100.0,-59.0,-72.0,-100.0,-72.0,-100.0,-100.0,-81.0,-100.0,-100.0,-63.0,-100.0,-84.0,-67.0,-100.0,-100.0,-63.0,-77.0,-100.0,-100.0,-100.0,-100.0,-76.0,-83.0,-100.0,-79.0,-77.0,-70.0,-86.0,-100.0,-85.0,-49.0,-57.0,-57.0,-71.0,-64.0,-70.0,-100.0,-74.0,-83.0,-85.0,-44.0,-49.0,-60.0,-62.0,-57.0,-76.0,-85.0,-77.0,-69.0,-86.0,-100.0,-85.0,-48.0,-57.0,-58.0,-71.0,-65.0,-70.0,-59.0,-74.0,-100.0,-85.0,-44.0,-49.0,-60.0,-63.0,-59.0,-77.0,-66.0,-69.0,-100.0,-100.0,-100.0,-100.0,-100.0,-100.0,-84.0,-100.0,-100.0,-85.0,-86.0,-100.0,-100.0,-100.0,-100.0,-100.0,-100.0,-100.0,-100.0,-100.0,-100.0,-100.0,-100.0,-100.0,-100.0,-100.0,-100.0,-100.0,-100.0,-100.0,-100.0,-100.0,-100.0,-100.0,-100.0,-100.0,-100.0,-100.0,-100.0,-100.0,-100.0,-100.0,-100.0,-100.0,-100.0,-100.0,-100.0,-100.0,-100.0,-100.0,-100.0,-100.0,-100.0,-100.0,-100.0,-100.0,-100.0,-100.0,-100.0,-100.0,-100.0,-100.0,-100.0,-100.0,-100.0,-100.0,-100.0,-100.0,-100.0,-100.0,-100.0,-100.0,-100.0,-100.0,-100.0,-100.0,-100.0,-100.0,-100.0,-100.0,-100.0,-100.0,-100.0,-100.0,-100.0,-100.0,-100.0,-100.0,-100.0,-100.0
2021.01.10 212722,11.0,24.0,23.575214423312882,-1.5511656076687115,-35.69521441104295,-0.3729780735582822,0.7719553237423312,9.988517926380366,-0.0006557019852147237,6.174233625766821e-05,-0.006271745996625768,-0.07707354510945773,0.03734835618935475,-1.512111372742916,1021.3082465644171,-100.0,-100.0,-72.0,-100.0,-100.0,-42.0,-68.0,-100.0,-68.0,-100.0,-100.0,-80.0,-100.0,-78.0,-59.0,-100.0,-100.0,-63.0,-59.0,-100.0,-63.0,-80.0,-80.0,-100.0,-100.0,-80.0,-79.0,-77.0,-81.0,-80.0,-76.0,-100.0,-84.0,-65.0,-88.0,-45.0,-52.0,-60.0,-72.0,-72.0,-70.0,-63.0,-75.0,-78.0,-82.0,-49.0,-53.0,-61.0,-64.0,-61.0,-78.0,-81.0,-73.0,-100.0,-84.0,-66.0,-89.0,-45.0,-53.0,-60.0,-73.0,-70.0,-70.0,-63.0,-75.0,-100.0,-83.0,-48.0,-53.0,-61.0,-64.0,-60.0,-77.0,-100.0,-100.0,-100.0,-77.0,-100.0,-100.0,-91.0,-100.0,-100.0,-100.0,-88.0,-100.0,-100.0,-100.0,-100.0,-100.0,-100.0,-100.0,-100.0,-100.0,-100.0,-100.0,-100.0,-100.0,-100.0,-100.0,-100.0,-100.0,-100.0,-100.0,-100.0,-100.0,-100.0,-100.0,-100.0,-100.0,-100.0,-100.0,-100.0,-100.0,-100.0,-100.0,-100.0,-100.0,-100.0,-100.0,-100.0,-100.0,-100.0,-100.0,-100.0,-100.0,-100.0,-100.0,-100.0,-100.0,-100.0,-100.0,-100.0,-100.0,-100.0,-100.0,-100.0,-100.0,-100.0,-100.0,-100.0,-100.0,-100.0,-100.0,-100.0,-100.0,-100.0,-100.0,-100.0,-100.0,-100.0,-100.0,-100.0,-100.0,-100.0,-100.0,-100.0,-100.0,-100.0,-100.0,-100.0,-100.0,-100.0,-100.0,-100.0,-100.0
2021.01.10 212738,12.0,24.0,23.997407074074072,-2.7048147728395064,-36.95036986419753,-0.3816060228888889,0.8794378306172839,9.955675462962963,0.0009346388339506174,0.00034559134030864207,-0.004942375035925926,-0.08806550930495612,0.038398773288699166,-1.5409996664082561,1021.31584,-100.0,-100.0,-100.0,-89.0,-68.0,-47.0,-71.0,-100.0,-68.0,-91.0,-100.0,-79.0,-100.0,-100.0,-66.0,-100.0,-100.0,-72.0,-100.0,-100.0,-62.0,-78.0,-100.0,-100.0,-100.0,-100.0,-68.0,-74.0,-100.0,-72.0,-74.0,-68.0,-85.0,-65.0,-87.0,-44.0,-53.0,-55.0,-73.0,-100.0,-75.0,-63.0,-80.0,-100.0,-81.0,-50.0,-62.0,-61.0,-65.0,-56.0,-76.0,-79.0,-74.0,-68.0,-85.0,-67.0,-88.0,-44.0,-53.0,-54.0,-73.0,-100.0,-75.0,-63.0,-81.0,-100.0,-81.0,-50.0,-63.0,-61.0,-65.0,-57.0,-77.0,-100.0,-69.0,-100.0,-82.0,-100.0,-100.0,-88.0,-100.0,-100.0,-85.0,-86.0,-100.0,-100.0,-86.0,-89.0,-85.0,-86.0,-100.0,-100.0,-100.0,-100.0,-100.0,-100.0,-100.0,-100.0,-100.0,-100.0,-100.0,-100.0,-100.0,-100.0,-100.0,-100.0,-100.0,-100.0,-100.0,-100.0,-100.0,-100.0,-100.0,-100.0,-100.0,-100.0,-100.0,-100.0,-100.0,-100.0,-100.0,-100.0,-100.0,-100.0,-100.0,-100.0,-100.0,-100.0,-100.0,-100.0,-100.0,-100.0,-100.0,-100.0,-100.0,-100.0,-100.0,-100.0,-100.0,-100.0,-100.0,-100.0,-100.0,-100.0,-100.0,-100.0,-100.0,-100.0,-100.0,-100.0,-100.0,-100.0,-100.0,-100.0,-100.0,-100.0,-100.0,-100.0,-100.0,-100.0,-100.0,-100.0,-100.0,-100.0,-100.0
2021.01.10 212751,13.0,24.0,23.961197353293414,-2.2868263149700603,-36.86981980239521,-0.2853201376646706,0.7801034766467067,9.974606179640718,0.0005110930234730543,2.8347935928148444e-06,-0.003938694501257485,-0.078026559360013,0.028633363116922887,-1.5411529890791384,1021.317528263473,-100.0,-100.0,-71.0,-88.0,-100.0,-53.0,-65.0,-100.0,-65.0,-100.0,-100.0,-78.0,-100.0,-100.0,-100.0,-100.0,-100.0,-66.0,-100.0,-100.0,-63.0,-80.0,-82.0,-100.0,-100.0,-74.0,-71.0,-75.0,-100.0,-80.0,-100.0,-70.0,-84.0,-69.0,-89.0,-48.0,-52.0,-53.0,-68.0,-69.0,-70.0,-61.0,-82.0,-100.0,-78.0,-49.0,-62.0,-56.0,-60.0,-55.0,-73.0,-81.0,-100.0,-71.0,-84.0,-69.0,-89.0,-47.0,-51.0,-52.0,-68.0,-69.0,-72.0,-61.0,-82.0,-100.0,-80.0,-51.0,-63.0,-57.0,-60.0,-56.0,-73.0,-100.0,-73.0,-100.0,-71.0,-81.0,-100.0,-100.0,-70.0,-100.0,-100.0,-86.0,-89.0,-100.0,-100.0,-86.0,-100.0,-100.0,-100.0,-100.0,-100.0,-100.0,-100.0,-100.0,-100.0,-100.0,-100.0,-100.0,-100.0,-100.0,-100.0,-100.0,-100.0,-100.0,-100.0,-100.0,-100.0,-100.0,-100.0,-100.0,-100.0,-100.0,-100.0,-100.0,-100.0,-100.0,-100.0,-100.0,-100.0,-100.0,-100.0,-100.0,-100.0,-100.0,-100.0,-100.0,-100.0,-100.0,-100.0,-100.0,-100.0,-100.0,-100.0,-100.0,-100.0,-100.0,-100.0,-100.0,-100.0,-100.0,-100.0,-100.0,-100.0,-100.0,-100.0,-100.0,-100.0,-100.0,-100.0,-100.0,-100.0,-100.0,-100.0,-100.0,-100.0,-100.0,-100.0,-100.0,-100.0,-100.0,-100.0,-100.0,-100.0
2021.01.10 212805,14.0,24.0,25.114490730538922,-2.132335304790419,-34.7712571017964,-0.3202593451976048,0.9265413363473054,9.958462751497008,0.0020949530940119762,-0.0010616071187425154,-0.002021967684491018,-0.09271732195765668,0.032158563660825756,-1.5209681894964802,1021.3248489221556,-100.0,-100.0,-71.0,-86.0,-100.0,-54.0,-71.0,-100.0,-62.0,-100.0,-100.0,-100.0,-100.0,-100.0,-57.0,-100.0,-84.0,-64.0,-100.0,-100.0,-72.0,-80.0,-76.0,-100.0,-100.0,-67.0,-66.0,-71.0,-100.0,-100.0,-73.0,-69.0,-86.0,-70.0,-100.0,-41.0,-50.0,-51.0,-63.0,-67.0,-72.0,-64.0,-80.0,-100.0,-82.0,-49.0,-61.0,-61.0,-59.0,-52.0,-75.0,-83.0,-72.0,-70.0,-86.0,-70.0,-100.0,-41.0,-50.0,-51.0,-64.0,-67.0,-72.0,-63.0,-81.0,-100.0,-83.0,-49.0,-61.0,-60.0,-59.0,-49.0,-75.0,-100.0,-100.0,-100.0,-76.0,-100.0,-100.0,-90.0,-67.0,-100.0,-100.0,-100.0,-100.0,-100.0,-100.0,-83.0,-100.0,-100.0,-89.0,-100.0,-100.0,-100.0,-100.0,-100.0,-100.0,-100.0,-100.0,-100.0,-100.0,-100.0,-100.0,-100.0,-100.0,-100.0,-100.0,-100.0,-100.0,-100.0,-100.0,-100.0,-100.0,-100.0,-100.0,-100.0,-100.0,-100.0,-100.0,-100.0,-100.0,-100.0,-100.0,-100.0,-100.0,-100.0,-100.0,-100.0,-100.0,-100.0,-100.0,-100.0,-100.0,-100.0,-100.0,-100.0,-100.0,-100.0,-100.0,-100.0,-100.0,-100.0,-100.0,-100.0,-100.0,-100.0,-100.0,-100.0,-100.0,-100.0,-100.0,-100.0,-100.0,-100.0,-100.0,-100.0,-100.0,-100.0,-100.0,-100.0,-100.0,-100.0,-100.0,-100.0,-100.0
2021.01.10 212818,15.0,24.0,25.020363321212123,-1.1152727060606062,-32.20690864242424,-0.31218441366060606,0.9100565983636364,9.969789312121211,-0.00031328122933333373,-0.0008510462733333334,-0.0020478608933939394,-0.09098574040514046,0.03133769438912466,-1.490893384182092,1021.3185533939392,-100.0,-100.0,-66.0,-100.0,-100.0,-50.0,-67.0,-100.0,-59.0,-100.0,-100.0,-75.0,-100.0,-100.0,-64.0,-100.0,-100.0,-61.0,-81.0,-77.0,-69.0,-79.0,-100.0,-100.0,-100.0,-64.0,-59.0,-66.0,-69.0,-78.0,-75.0,-64.0,-84.0,-74.0,-90.0,-44.0,-48.0,-52.0,-70.0,-100.0,-67.0,-69.0,-81.0,-100.0,-84.0,-55.0,-62.0,-58.0,-67.0,-57.0,-77.0,-81.0,-74.0,-63.0,-85.0,-73.0,-91.0,-44.0,-48.0,-53.0,-70.0,-100.0,-67.0,-70.0,-82.0,-100.0,-83.0,-55.0,-62.0,-57.0,-67.0,-57.0,-77.0,-100.0,-65.0,-100.0,-71.0,-76.0,-100.0,-86.0,-63.0,-100.0,-100.0,-100.0,-100.0,-100.0,-89.0,-83.0,-100.0,-89.0,-100.0,-100.0,-100.0,-100.0,-100.0,-100.0,-100.0,-100.0,-100.0,-100.0,-100.0,-100.0,-100.0,-100.0,-100.0,-100.0,-100.0,-100.0,-100.0,-100.0,-100.0,-100.0,-100.0,-100.0,-100.0,-100.0,-100.0,-100.0,-100.0,-100.0,-100.0,-100.0,-100.0,-100.0,-100.0,-100.0,-100.0,-100.0,-100.0,-100.0,-100.0,-100.0,-100.0,-100.0,-100.0,-100.0,-100.0,-100.0,-100.0,-100.0,-100.0,-100.0,-100.0,-100.0,-100.0,-100.0,-100.0,-100.0,-100.0,-100.0,-100.0,-100.0,-100.0,-100.0,-100.0,-100.0,-100.0,-100.0,-100.0,-100.0,-100.0,-100.0,-100.0,-100.0,-100.0
2021.01.10 212831,16.0,24.0,23.5424997,-1.4242499727499998,-29.729249543750008,-0.30917569925,0.9874138941249999,9.95997370625,0.002827237094,-0.0010919216145625,-0.004108374287374999,-0.09876107042655344,0.03104747638717521,-1.499313536286354,1021.3220098124999,-100.0,-100.0,-66.0,-87.0,-100.0,-55.0,-70.0,-100.0,-50.0,-100.0,-100.0,-77.0,-100.0,-100.0,-63.0,-100.0,-76.0,-53.0,-100.0,-100.0,-65.0,-88.0,-100.0,-100.0,-100.0,-63.0,-100.0,-81.0,-70.0,-81.0,-66.0,-100.0,-84.0,-70.0,-100.0,-38.0,-48.0,-47.0,-56.0,-66.0,-66.0,-66.0,-79.0,-80.0,-85.0,-57.0,-64.0,-55.0,-57.0,-58.0,-66.0,-81.0,-68.0,-100.0,-83.0,-64.0,-100.0,-39.0,-48.0,-45.0,-57.0,-67.0,-66.0,-73.0,-80.0,-78.0,-84.0,-56.0,-64.0,-55.0,-56.0,-57.0,-67.0,-100.0,-100.0,-100.0,-62.0,-100.0,-100.0,-80.0,-57.0,-81.0,-76.0,-100.0,-100.0,-100.0,-84.0,-82.0,-100.0,-84.0,-100.0,-100.0,-100.0,-100.0,-100.0,-100.0,-100.0,-100.0,-100.0,-100.0,-100.0,-100.0,-100.0,-100.0,-100.0,-100.0,-100.0,-100.0,-100.0,-100.0,-100.0,-100.0,-100.0,-100.0,-100.0,-100.0,-100.0,-100.0,-100.0,-100.0,-100.0,-100.0,-100.0,-100.0,-100.0,-100.0,-100.0,-100.0,-100.0,-100.0,-100.0,-100.0,-100.0,-100.0,-100.0,-100.0,-100.0,-100.0,-100.0,-100.0,-100.0,-100.0,-100.0,-100.0,-100.0,-100.0,-100.0,-100.0,-100.0,-100.0,-100.0,-100.0,-100.0,-100.0,-100.0,-100.0,-100.0,-100.0,-100.0,-100.0,-100.0,-100.0,-100.0,-100.0,-100.0
2021.01.10 212844,17.0,24.0,22.73930211046512,0.46011626779069775,-30.89267375,-0.20099380203604653,0.9769058813372091,9.96190929360465,0.000257785196627907,-0.0008633798751744189,-0.004847272515581396,-0.09772290020834563,0.020211419126500742,-1.4113743353721708,1021.3241097674418,-100.0,-100.0,-64.0,-77.0,-100.0,-62.0,-72.0,-100.0,-51.0,-100.0,-100.0,-72.0,-85.0,-69.0,-100.0,-100.0,-75.0,-54.0,-100.0,-100.0,-100.0,-87.0,-100.0,-100.0,-100.0,-69.0,-75.0,-87.0,-63.0,-100.0,-62.0,-66.0,-84.0,-77.0,-100.0,-42.0,-43.0,-49.0,-56.0,-100.0,-66.0,-73.0,-85.0,-76.0,-82.0,-63.0,-65.0,-61.0,-56.0,-59.0,-67.0,-100.0,-62.0,-65.0,-84.0,-74.0,-100.0,-42.0,-43.0,-49.0,-56.0,-100.0,-66.0,-72.0,-84.0,-76.0,-82.0,-64.0,-65.0,-60.0,-55.0,-58.0,-67.0,-100.0,-100.0,-90.0,-65.0,-100.0,-100.0,-86.0,-57.0,-78.0,-100.0,-100.0,-80.0,-100.0,-85.0,-83.0,-100.0,-84.0,-100.0,-100.0,-100.0,-100.0,-100.0,-100.0,-100.0,-100.0,-100.0,-100.0,-100.0,-100.0,-100.0,-100.0,-100.0,-100.0,-100.0,-100.0,-100.0,-100.0,-100.0,-100.0,-100.0,-100.0,-100.0,-100.0,-100.0,-100.0,-100.0,-100.0,-100.0,-100.0,-100.0,-100.0,-100.0,-100.0,-100.0,-100.0,-100.0,-100.0,-100.0,-100.0,-100.0,-100.0,-100.0,-100.0,-100.0,-100.0,-100.0,-100.0,-100.0,-100.0,-100.0,-100.0,-100.0,-100.0,-100.0,-100.0,-100.0,-100.0,-100.0,-100.0,-100.0,-100.0,-100.0,-100.0,-100.0,-100.0,-100.0,-100.0,-100.0,-100.0,-100.0,-100.0,-100.0
2021.01.10 212858,18.0,24.0,23.7156519378882,1.11242233689441,-31.746707745341613,-0.15875083079503105,1.0385352810559005,9.951602440993788,0.0019566355313043477,-0.0009681833295652174,-0.00069013741,-0.1039501025069574,0.01596946904491758,-1.3806210763706184,1021.3249952173911,-100.0,-100.0,-66.0,-100.0,-100.0,-59.0,-75.0,-100.0,-50.0,-100.0,-100.0,-76.0,-100.0,-100.0,-71.0,-100.0,-70.0,-54.0,-100.0,-100.0,-100.0,-89.0,-100.0,-90.0,-100.0,-65.0,-74.0,-90.0,-61.0,-100.0,-68.0,-71.0,-86.0,-100.0,-100.0,-40.0,-36.0,-43.0,-58.0,-100.0,-75.0,-70.0,-85.0,-76.0,-83.0,-60.0,-67.0,-54.0,-58.0,-58.0,-65.0,-81.0,-71.0,-71.0,-85.0,-100.0,-100.0,-40.0,-37.0,-43.0,-58.0,-100.0,-75.0,-71.0,-86.0,-100.0,-83.0,-60.0,-67.0,-54.0,-58.0,-58.0,-66.0,-100.0,-81.0,-100.0,-69.0,-78.0,-100.0,-84.0,-71.0,-100.0,-76.0,-100.0,-82.0,-100.0,-87.0,-83.0,-100.0,-87.0,-100.0,-83.0,-87.0,-100.0,-100.0,-100.0,-100.0,-100.0,-100.0,-100.0,-100.0,-100.0,-100.0,-100.0,-100.0,-100.0,-100.0,-100.0,-100.0,-100.0,-100.0,-100.0,-100.0,-100.0,-100.0,-100.0,-100.0,-100.0,-100.0,-100.0,-100.0,-100.0,-100.0,-100.0,-100.0,-100.0,-100.0,-100.0,-100.0,-100.0,-100.0,-100.0,-100.0,-100.0,-100.0,-100.0,-100.0,-100.0,-100.0,-100.0,-100.0,-100.0,-100.0,-100.0,-100.0,-100.0,-100.0,-100.0,-100.0,-100.0,-100.0,-100.0,-100.0,-100.0,-100.0,-100.0,-100.0,-100.0,-100.0,-100.0,-100.0,-100.0,-100.0,-100.0,-100.0
2021.01.10 212911,19.0,24.0,27.23281404191617,0.9883832113173652,-31.058801868263473,-0.2986678610179641,1.0701691531736528,9.946419718562874,0.003799523359461078,0.0015903529670658683,-0.0031266461487425147,-0.10711318919223221,0.030034530640183767,-1.4044185919675998,1021.3206313173653,-100.0,-100.0,-64.0,-75.0,-100.0,-63.0,-76.0,-100.0,-50.0,-100.0,-100.0,-74.0,-100.0,-100.0,-71.0,-100.0,-66.0,-55.0,-100.0,-100.0,-100.0,-88.0,-62.0,-100.0,-100.0,-67.0,-100.0,-90.0,-62.0,-100.0,-65.0,-100.0,-80.0,-75.0,-100.0,-38.0,-36.0,-50.0,-58.0,-69.0,-68.0,-73.0,-100.0,-74.0,-77.0,-59.0,-68.0,-55.0,-55.0,-57.0,-70.0,-100.0,-66.0,-100.0,-80.0,-76.0,-100.0,-39.0,-36.0,-50.0,-59.0,-69.0,-68.0,-69.0,-100.0,-74.0,-78.0,-59.0,-68.0,-55.0,-55.0,-57.0,-70.0,-100.0,-100.0,-100.0,-64.0,-100.0,-100.0,-82.0,-61.0,-80.0,-100.0,-100.0,-85.0,-86.0,-78.0,-80.0,-100.0,-78.0,-100.0,-85.0,-100.0,-86.0,-82.0,-86.0,-81.0,-100.0,-100.0,-100.0,-100.0,-100.0,-100.0,-100.0,-100.0,-100.0,-100.0,-100.0,-100.0,-100.0,-100.0,-100.0,-100.0,-100.0,-100.0,-100.0,-100.0,-100.0,-100.0,-100.0,-100.0,-100.0,-100.0,-100.0,-100.0,-100.0,-100.0,-100.0,-100.0,-100.0,-100.0,-100.0,-100.0,-100.0,-100.0,-100.0,-100.0,-100.0,-100.0,-100.0,-100.0,-100.0,-100.0,-100.0,-100.0,-100.0,-100.0,-100.0,-100.0,-100.0,-100.0,-100.0,-100.0,-100.0,-100.0,-100.0,-100.0,-100.0,-100.0,-100.0,-100.0,-100.0,-100.0,-100.0,-100.0
2021.01.10 212925,20.0,24.0,30.13288301226994,1.1665030480368097,-32.49828184662577,-0.25853761307730067,0.964466771411043,9.956922337423313,0.0012705847742331296,-0.002273037111411043,-0.003847023041779141,-0.09655021252167732,0.02602809056763938,-1.4217843570592212,1021.3214342944785,-100.0,-100.0,-63.0,-82.0,-100.0,-66.0,-84.0,-100.0,-49.0,-100.0,-100.0,-74.0,-100.0,-61.0,-75.0,-100.0,-100.0,-47.0,-100.0,-100.0,-100.0,-100.0,-100.0,-100.0,-100.0,-63.0,-78.0,-100.0,-57.0,-100.0,-72.0,-66.0,-81.0,-79.0,-100.0,-34.0,-35.0,-53.0,-64.0,-100.0,-65.0,-74.0,-100.0,-100.0,-78.0,-61.0,-66.0,-54.0,-57.0,-58.0,-72.0,-100.0,-72.0,-61.0,-80.0,-80.0,-100.0,-34.0,-35.0,-54.0,-65.0,-100.0,-65.0,-74.0,-100.0,-100.0,-77.0,-61.0,-66.0,-54.0,-57.0,-58.0,-72.0,-100.0,-85.0,-100.0,-63.0,-74.0,-100.0,-86.0,-58.0,-72.0,-78.0,-100.0,-100.0,-100.0,-81.0,-80.0,-100.0,-81.0,-100.0,-76.0,-100.0,-100.0,-100.0,-100.0,-100.0,-100.0,-100.0,-100.0,-100.0,-100.0,-100.0,-100.0,-100.0,-100.0,-100.0,-100.0,-100.0,-100.0,-100.0,-100.0,-100.0,-100.0,-100.0,-100.0,-100.0,-100.0,-100.0,-100.0,-100.0,-100.0,-100.0,-100.0,-100.0,-100.0,-100.0,-100.0,-100.0,-100.0,-100.0,-100.0,-100.0,-100.0,-100.0,-100.0,-100.0,-100.0,-100.0,-100.0,-100.0,-100.0,-100.0,-100.0,-100.0,-100.0,-100.0,-100.0,-100.0,-100.0,-100.0,-100.0,-100.0,-100.0,-100.0,-100.0,-100.0,-100.0,-100.0,-100.0,-100.0,-100.0,-100.0,-100.0,-100.0
2021.01.10 212939,21.0,24.0,32.4052495625,0.554999987125,-35.54212451874999,-0.3067215665,1.1038205403124999,9.943842259375,0.0050110805175000005,-0.001263727463125,-0.0026957483859375,-0.110501252207905,0.030867258890066245,-1.42482733130455,1021.3130871875001,-100.0,-100.0,-100.0,-78.0,-100.0,-65.0,-77.0,-88.0,-53.0,-100.0,-85.0,-75.0,-83.0,-66.0,-78.0,-100.0,-66.0,-48.0,-100.0,-100.0,-100.0,-89.0,-100.0,-100.0,-100.0,-68.0,-78.0,-100.0,-60.0,-100.0,-71.0,-67.0,-79.0,-82.0,-100.0,-28.0,-37.0,-52.0,-66.0,-100.0,-67.0,-74.0,-88.0,-100.0,-72.0,-66.0,-71.0,-52.0,-57.0,-61.0,-68.0,-79.0,-72.0,-67.0,-78.0,-83.0,-100.0,-29.0,-37.0,-51.0,-66.0,-100.0,-67.0,-74.0,-87.0,-73.0,-76.0,-67.0,-70.0,-52.0,-57.0,-62.0,-68.0,-100.0,-100.0,-100.0,-56.0,-100.0,-100.0,-82.0,-62.0,-80.0,-100.0,-100.0,-100.0,-100.0,-79.0,-79.0,-100.0,-80.0,-100.0,-80.0,-100.0,-82.0,-100.0,-90.0,-100.0,-83.0,-90.0,-100.0,-100.0,-100.0,-100.0,-100.0,-100.0,-100.0,-100.0,-100.0,-100.0,-100.0,-100.0,-100.0,-100.0,-100.0,-100.0,-100.0,-100.0,-100.0,-100.0,-100.0,-100.0,-100.0,-100.0,-100.0,-100.0,-100.0,-100.0,-100.0,-100.0,-100.0,-100.0,-100.0,-100.0,-100.0,-100.0,-100.0,-100.0,-100.0,-100.0,-100.0,-100.0,-100.0,-100.0,-100.0,-100.0,-100.0,-100.0,-100.0,-100.0,-100.0,-100.0,-100.0,-100.0,-100.0,-100.0,-100.0,-100.0,-100.0,-100.0,-100.0,-100.0,-100.0,-100.0,-100.0,-100.0
2021.01.10 212951,22.0,24.0,33.79215170886076,-0.0072151921518986565,-37.62189833544304,-0.28957087018987343,1.1473577059493671,9.93228531012658,-0.00011530669411392401,-0.0035285199459493674,-0.005306230529873417,-0.1149974824695647,0.02926098593050916,-1.4355321466168272,1021.3070174050633,-100.0,-100.0,-63.0,-100.0,-100.0,-67.0,-87.0,-100.0,-57.0,-100.0,-87.0,-69.0,-77.0,-65.0,-81.0,-100.0,-100.0,-48.0,-100.0,-100.0,-83.0,-100.0,-64.0,-100.0,-100.0,-69.0,-100.0,-100.0,-59.0,-82.0,-65.0,-60.0,-75.0,-100.0,-100.0,-33.0,-39.0,-54.0,-64.0,-65.0,-68.0,-100.0,-86.0,-100.0,-72.0,-61.0,-71.0,-54.0,-61.0,-62.0,-68.0,-81.0,-64.0,-60.0,-76.0,-100.0,-100.0,-33.0,-39.0,-54.0,-64.0,-64.0,-69.0,-100.0,-86.0,-100.0,-73.0,-62.0,-71.0,-45.0,-60.0,-62.0,-68.0,-100.0,-88.0,-100.0,-56.0,-71.0,-100.0,-81.0,-60.0,-100.0,-100.0,-87.0,-100.0,-83.0,-79.0,-76.0,-80.0,-78.0,-100.0,-76.0,-100.0,-75.0,-100.0,-100.0,-100.0,-83.0,-100.0,-83.0,-100.0,-100.0,-100.0,-100.0,-100.0,-100.0,-100.0,-100.0,-100.0,-100.0,-100.0,-100.0,-100.0,-100.0,-100.0,-100.0,-100.0,-100.0,-100.0,-100.0,-100.0,-100.0,-100.0,-100.0,-100.0,-100.0,-100.0,-100.0,-100.0,-100.0,-100.0,-100.0,-100.0,-100.0,-100.0,-100.0,-100.0,-100.0,-100.0,-100.0,-100.0,-100.0,-100.0,-100.0,-100.0,-100.0,-100.0,-100.0,-100.0,-100.0,-100.0,-100.0,-100.0,-100.0,-100.0,-100.0,-100.0,-100.0,-100.0,-100.0,-100.0,-100.0,-100.0,-100.0,-100.0
2021.01.10 213004,23.0,24.0,33.05185141358025,-2.304444410308642,-40.39148098765432,-0.18882256115061727,1.0571905648148148,9.948758657407408,0.00020687967216049394,-0.0024334684427160494,-0.003728185993641975,-0.10584695887878348,0.018998140616509094,-1.5067519471969133,1021.296891234568,-100.0,-100.0,-64.0,-79.0,-100.0,-100.0,-85.0,-100.0,-61.0,-100.0,-100.0,-71.0,-100.0,-64.0,-78.0,-100.0,-70.0,-52.0,-100.0,-100.0,-100.0,-100.0,-59.0,-100.0,-100.0,-73.0,-86.0,-100.0,-54.0,-100.0,-61.0,-60.0,-71.0,-100.0,-100.0,-36.0,-42.0,-59.0,-66.0,-68.0,-69.0,-70.0,-87.0,-70.0,-73.0,-64.0,-69.0,-50.0,-59.0,-55.0,-62.0,-100.0,-60.0,-59.0,-71.0,-100.0,-100.0,-36.0,-42.0,-57.0,-66.0,-68.0,-69.0,-72.0,-88.0,-70.0,-73.0,-64.0,-69.0,-50.0,-59.0,-54.0,-62.0,-100.0,-100.0,-100.0,-81.0,-100.0,-100.0,-75.0,-64.0,-100.0,-100.0,-100.0,-100.0,-100.0,-78.0,-70.0,-100.0,-78.0,-88.0,-74.0,-100.0,-82.0,-73.0,-100.0,-100.0,-83.0,-91.0,-100.0,-89.0,-100.0,-100.0,-100.0,-100.0,-100.0,-100.0,-100.0,-100.0,-100.0,-100.0,-100.0,-100.0,-100.0,-100.0,-100.0,-100.0,-100.0,-100.0,-100.0,-100.0,-100.0,-100.0,-100.0,-100.0,-100.0,-100.0,-100.0,-100.0,-100.0,-100.0,-100.0,-100.0,-100.0,-100.0,-100.0,-100.0,-100.0,-100.0,-100.0,-100.0,-100.0,-100.0,-100.0,-100.0,-100.0,-100.0,-100.0,-100.0,-100.0,-100.0,-100.0,-100.0,-100.0,-100.0,-100.0,-100.0,-100.0,-100.0,-100.0,-100.0,-100.0,-100.0,-100.0,-100.0
2021.01.10 213017,24.0,24.0,32.76074955625,-3.9663749375000004,-40.47562455625,-0.31091154748125,1.150972795,9.9428846125,0.0015406021761249999,-0.0012331842590000003,-0.0047536006126249995,-0.11518859146162863,0.031303841112821786,-1.543744231015444,1021.28328725,-100.0,-100.0,-67.0,-76.0,-100.0,-100.0,-90.0,-89.0,-65.0,-100.0,-100.0,-71.0,-79.0,-62.0,-81.0,-100.0,-71.0,-57.0,-100.0,-100.0,-90.0,-100.0,-59.0,-100.0,-100.0,-77.0,-82.0,-100.0,-59.0,-100.0,-63.0,-100.0,-75.0,-85.0,-100.0,-40.0,-46.0,-58.0,-71.0,-64.0,-73.0,-74.0,-88.0,-100.0,-72.0,-61.0,-73.0,-47.0,-55.0,-54.0,-63.0,-100.0,-64.0,-59.0,-75.0,-85.0,-100.0,-39.0,-46.0,-57.0,-71.0,-64.0,-73.0,-73.0,-88.0,-100.0,-72.0,-61.0,-73.0,-48.0,-55.0,-55.0,-63.0,-100.0,-100.0,-100.0,-64.0,-71.0,-100.0,-80.0,-67.0,-100.0,-100.0,-100.0,-81.0,-81.0,-81.0,-66.0,-78.0,-81.0,-100.0,-76.0,-76.0,-100.0,-66.0,-100.0,-100.0,-82.0,-100.0,-100.0,-100.0,-90.0,-68.0,-91.0,-91.0,-100.0,-100.0,-100.0,-100.0,-100.0,-100.0,-100.0,-100.0,-100.0,-100.0,-100.0,-100.0,-100.0,-100.0,-100.0,-100.0,-100.0,-100.0,-100.0,-100.0,-100.0,-100.0,-100.0,-100.0,-100.0,-100.0,-100.0,-100.0,-100.0,-100.0,-100.0,-100.0,-100.0,-100.0,-100.0,-100.0,-100.0,-100.0,-100.0,-100.0,-100.0,-100.0,-100.0,-100.0,-100.0,-100.0,-100.0,-100.0,-100.0,-100.0,-100.0,-100.0,-100.0,-100.0,-100.0,-100.0,-100.0,-100.0,-100.0,-100.0
2021.01.10 213030,25.0,24.0,33.14817026219512,-2.8679267823170727,-38.735121408536585,-0.2977222329329268,0.9698564877439024,9.954109890243902,-0.0009490461899999996,-0.0005538759350609756,-0.002951268767195122,-0.0971021530468289,0.02995156648671023,-1.5387854205399025,1021.2716810365853,-100.0,-100.0,-65.0,-100.0,-100.0,-100.0,-89.0,-100.0,-61.0,-100.0,-87.0,-67.0,-100.0,-56.0,-80.0,-100.0,-74.0,-54.0,-100.0,-100.0,-100.0,-100.0,-100.0,-100.0,-100.0,-70.0,-100.0,-100.0,-60.0,-100.0,-68.0,-60.0,-73.0,-100.0,-100.0,-49.0,-50.0,-66.0,-69.0,-65.0,-73.0,-78.0,-100.0,-100.0,-73.0,-65.0,-70.0,-47.0,-52.0,-58.0,-61.0,-100.0,-66.0,-59.0,-73.0,-100.0,-100.0,-51.0,-50.0,-61.0,-69.0,-65.0,-73.0,-78.0,-100.0,-100.0,-73.0,-65.0,-70.0,-47.0,-52.0,-58.0,-61.0,-100.0,-100.0,-100.0,-70.0,-61.0,-100.0,-68.0,-67.0,-65.0,-100.0,-86.0,-77.0,-79.0,-81.0,-56.0,-100.0,-81.0,-100.0,-76.0,-100.0,-82.0,-100.0,-100.0,-100.0,-84.0,-100.0,-100.0,-91.0,-100.0,-100.0,-100.0,-100.0,-63.0,-100.0,-100.0,-100.0,-100.0,-100.0,-100.0,-100.0,-100.0,-100.0,-100.0,-100.0,-100.0,-100.0,-100.0,-100.0,-100.0,-100.0,-100.0,-100.0,-100.0,-100.0,-100.0,-100.0,-100.0,-100.0,-100.0,-100.0,-100.0,-100.0,-100.0,-100.0,-100.0,-100.0,-100.0,-100.0,-100.0,-100.0,-100.0,-100.0,-100.0,-100.0,-100.0,-100.0,-100.0,-100.0,-100.0,-100.0,-100.0,-100.0,-100.0,-100.0,-100.0,-100.0,-100.0,-100.0,-100.0,-100.0,-100.0,-100.0
2021.01.10 213042,26.0,24.0,32.64824940625,-1.2967499745,-35.74124969375,-0.2687423823125,1.1001842378749997,9.94758331875,0.0030601293268124998,-0.0009162977872500004,-0.005719531252125,-0.11010541338473553,0.027020456554600926,-1.4840929090976716,1021.2643001875,-100.0,-100.0,-68.0,-73.0,-100.0,-100.0,-100.0,-100.0,-60.0,-100.0,-84.0,-65.0,-100.0,-55.0,-86.0,-100.0,-73.0,-60.0,-100.0,-100.0,-100.0,-100.0,-100.0,-100.0,-100.0,-71.0,-100.0,-100.0,-68.0,-79.0,-69.0,-60.0,-77.0,-80.0,-100.0,-48.0,-54.0,-54.0,-72.0,-63.0,-67.0,-75.0,-100.0,-75.0,-72.0,-62.0,-73.0,-47.0,-52.0,-62.0,-65.0,-75.0,-70.0,-60.0,-80.0,-81.0,-100.0,-48.0,-54.0,-53.0,-73.0,-64.0,-68.0,-75.0,-100.0,-75.0,-73.0,-63.0,-73.0,-47.0,-52.0,-61.0,-66.0,-100.0,-100.0,-100.0,-74.0,-100.0,-100.0,-74.0,-64.0,-64.0,-100.0,-100.0,-76.0,-75.0,-79.0,-68.0,-100.0,-78.0,-100.0,-81.0,-100.0,-100.0,-100.0,-100.0,-100.0,-87.0,-100.0,-100.0,-100.0,-100.0,-62.0,-90.0,-89.0,-100.0,-81.0,-100.0,-100.0,-100.0,-100.0,-100.0,-100.0,-100.0,-100.0,-100.0,-100.0,-100.0,-100.0,-100.0,-100.0,-100.0,-100.0,-100.0,-100.0,-100.0,-100.0,-100.0,-100.0,-100.0,-100.0,-100.0,-100.0,-100.0,-100.0,-100.0,-100.0,-100.0,-100.0,-100.0,-100.0,-100.0,-100.0,-100.0,-100.0,-100.0,-100.0,-100.0,-100.0,-100.0,-100.0,-100.0,-100.0,-100.0,-100.0,-100.0,-100.0,-100.0,-100.0,-100.0,-100.0,-100.0,-100.0,-100.0,-100.0
2021.01.10 213055,27.0,24.0,29.32905627044025,2.52905656572327,-33.30415050314465,-0.294284985408805,1.0963369366666669,9.946088584905661,1.2862825220125738e-05,-0.0029844993233962263,-0.0060674170603144655,-0.10972137435239811,0.029580730388421263,-1.3523479377698597,1021.256258301887,-100.0,-100.0,-76.0,-74.0,-100.0,-73.0,-100.0,-100.0,-72.0,-100.0,-100.0,-66.0,-77.0,-55.0,-85.0,-100.0,-78.0,-59.0,-100.0,-100.0,-100.0,-100.0,-100.0,-100.0,-100.0,-86.0,-100.0,-100.0,-69.0,-81.0,-71.0,-100.0,-72.0,-100.0,-100.0,-52.0,-53.0,-62.0,-79.0,-65.0,-68.0,-80.0,-100.0,-100.0,-72.0,-65.0,-70.0,-46.0,-48.0,-57.0,-66.0,-76.0,-61.0,-100.0,-72.0,-100.0,-100.0,-52.0,-53.0,-62.0,-79.0,-64.0,-68.0,-79.0,-91.0,-100.0,-72.0,-64.0,-70.0,-47.0,-47.0,-58.0,-66.0,-100.0,-100.0,-100.0,-100.0,-100.0,-100.0,-62.0,-72.0,-100.0,-100.0,-100.0,-76.0,-76.0,-87.0,-75.0,-100.0,-86.0,-100.0,-73.0,-73.0,-100.0,-100.0,-100.0,-100.0,-100.0,-100.0,-100.0,-100.0,-100.0,-100.0,-91.0,-86.0,-100.0,-77.0,-76.0,-89.0,-100.0,-100.0,-100.0,-100.0,-100.0,-100.0,-100.0,-100.0,-100.0,-100.0,-100.0,-100.0,-100.0,-100.0,-100.0,-100.0,-100.0,-100.0,-100.0,-100.0,-100.0,-100.0,-100.0,-100.0,-100.0,-100.0,-100.0,-100.0,-100.0,-100.0,-100.0,-100.0,-100.0,-100.0,-100.0,-100.0,-100.0,-100.0,-100.0,-100.0,-100.0,-100.0,-100.0,-100.0,-100.0,-100.0,-100.0,-100.0,-100.0,-100.0,-100.0,-100.0,-100.0,-100.0,-100.0,-100.0
2021.01.10 213108,28.0,24.0,27.69054511515152,3.2530908593939394,-30.317454145454544,-0.20714104762424243,1.0389701592727272,9.949198584848485,0.0021264774106666664,-0.000880664169030303,-0.004069269618424243,-0.10401980610507904,0.020861368169161353,-1.3358320503523855,1021.2383109696972,-100.0,-100.0,-100.0,-66.0,-100.0,-100.0,-100.0,-100.0,-71.0,-100.0,-100.0,-60.0,-78.0,-56.0,-100.0,-100.0,-84.0,-62.0,-100.0,-86.0,-100.0,-100.0,-100.0,-85.0,-100.0,-100.0,-89.0,-100.0,-76.0,-75.0,-70.0,-59.0,-68.0,-100.0,-100.0,-50.0,-58.0,-66.0,-78.0,-59.0,-70.0,-71.0,-89.0,-73.0,-69.0,-55.0,-72.0,-40.0,-48.0,-52.0,-65.0,-100.0,-70.0,-59.0,-68.0,-100.0,-100.0,-50.0,-58.0,-65.0,-78.0,-64.0,-70.0,-70.0,-100.0,-73.0,-70.0,-65.0,-72.0,-40.0,-48.0,-55.0,-65.0,-100.0,-100.0,-100.0,-100.0,-100.0,-100.0,-54.0,-100.0,-100.0,-100.0,-100.0,-75.0,-100.0,-89.0,-81.0,-100.0,-86.0,-100.0,-71.0,-66.0,-100.0,-100.0,-100.0,-100.0,-89.0,-100.0,-100.0,-100.0,-100.0,-100.0,-100.0,-84.0,-100.0,-70.0,-74.0,-100.0,-88.0,-89.0,-100.0,-100.0,-100.0,-100.0,-100.0,-100.0,-100.0,-100.0,-100.0,-100.0,-100.0,-100.0,-100.0,-100.0,-100.0,-100.0,-100.0,-100.0,-100.0,-100.0,-100.0,-100.0,-100.0,-100.0,-100.0,-100.0,-100.0,-100.0,-100.0,-100.0,-100.0,-100.0,-100.0,-100.0,-100.0,-100.0,-100.0,-100.0,-100.0,-100.0,-100.0,-100.0,-100.0,-100.0,-100.0,-100.0,-100.0,-100.0,-100.0,-100.0,-100.0,-100.0,-100.0,-100.0
2021.01.10 213121,29.0,24.0,28.74469844578313,2.9457830879518068,-28.750120078313252,-0.28311578344819277,1.0252977016265057,9.950865728915664,0.0007784926449397584,0.0014018620953614455,-0.0030320922216265068,-0.10262720978044597,0.028456635994441114,-1.3590150698121772,1021.2265756024095,-100.0,-100.0,-77.0,-71.0,-100.0,-73.0,-100.0,-100.0,-100.0,-100.0,-86.0,-62.0,-100.0,-53.0,-89.0,-100.0,-74.0,-100.0,-100.0,-100.0,-100.0,-100.0,-62.0,-100.0,-100.0,-100.0,-100.0,-100.0,-100.0,-100.0,-71.0,-56.0,-69.0,-100.0,-100.0,-56.0,-63.0,-69.0,-85.0,-63.0,-69.0,-72.0,-100.0,-71.0,-77.0,-65.0,-71.0,-40.0,-47.0,-54.0,-70.0,-83.0,-72.0,-56.0,-69.0,-100.0,-100.0,-56.0,-63.0,-65.0,-84.0,-100.0,-70.0,-75.0,-100.0,-71.0,-78.0,-65.0,-71.0,-41.0,-46.0,-53.0,-70.0,-100.0,-100.0,-100.0,-100.0,-72.0,-100.0,-62.0,-100.0,-100.0,-100.0,-83.0,-100.0,-100.0,-88.0,-81.0,-100.0,-88.0,-100.0,-69.0,-100.0,-100.0,-76.0,-100.0,-100.0,-88.0,-100.0,-100.0,-92.0,-100.0,-55.0,-100.0,-86.0,-100.0,-100.0,-100.0,-100.0,-90.0,-90.0,-88.0,-89.0,-91.0,-85.0,-100.0,-100.0,-100.0,-100.0,-100.0,-100.0,-100.0,-100.0,-100.0,-100.0,-100.0,-100.0,-100.0,-100.0,-100.0,-100.0,-100.0,-100.0,-100.0,-100.0,-100.0,-100.0,-100.0,-100.0,-100.0,-100.0,-100.0,-100.0,-100.0,-100.0,-100.0,-100.0,-100.0,-100.0,-100.0,-100.0,-100.0,-100.0,-100.0,-100.0,-100.0,-100.0,-100.0,-100.0,-100.0,-100.0,-100.0,-100.0,-100.0,-100.0
2021.01.10 213134,30.0,24.0,30.83963587272728,0.9676363415757574,-28.555635963636362,-0.34879505147878787,1.1780267399393938,9.93856213030303,0.0032445460797575765,-0.0003290341834545456,-0.0017738971992727265,-0.11789699824470458,0.035115336740008427,-1.4222054488731153,1021.2122201818181,-100.0,-100.0,-100.0,-67.0,-100.0,-77.0,-100.0,-100.0,-76.0,-100.0,-86.0,-63.0,-100.0,-56.0,-100.0,-100.0,-80.0,-65.0,-100.0,-100.0,-100.0,-100.0,-63.0,-100.0,-100.0,-85.0,-100.0,-100.0,-84.0,-100.0,-75.0,-50.0,-61.0,-100.0,-100.0,-56.0,-63.0,-65.0,-77.0,-66.0,-74.0,-81.0,-100.0,-100.0,-75.0,-63.0,-74.0,-46.0,-45.0,-54.0,-67.0,-100.0,-75.0,-51.0,-61.0,-100.0,-100.0,-54.0,-63.0,-100.0,-77.0,-65.0,-75.0,-82.0,-100.0,-100.0,-75.0,-62.0,-74.0,-47.0,-46.0,-55.0,-67.0,-100.0,-100.0,-100.0,-82.0,-100.0,-100.0,-62.0,-100.0,-83.0,-100.0,-85.0,-72.0,-72.0,-87.0,-85.0,-100.0,-87.0,-100.0,-64.0,-73.0,-100.0,-75.0,-79.0,-100.0,-100.0,-100.0,-100.0,-100.0,-100.0,-59.0,-100.0,-86.0,-100.0,-78.0,-81.0,-100.0,-91.0,-89.0,-89.0,-100.0,-100.0,-100.0,-100.0,-100.0,-100.0,-100.0,-100.0,-100.0,-100.0,-100.0,-100.0,-100.0,-100.0,-100.0,-100.0,-100.0,-100.0,-100.0,-100.0,-100.0,-100.0,-100.0,-100.0,-100.0,-100.0,-100.0,-100.0,-100.0,-100.0,-100.0,-100.0,-100.0,-100.0,-100.0,-100.0,-100.0,-100.0,-100.0,-100.0,-100.0,-100.0,-100.0,-100.0,-100.0,-100.0,-100.0,-100.0,-100.0,-100.0,-100.0,-100.0,-100.0
2021.01.10 213147,31.0,24.0,32.7219507804878,0.8634146202439025,-30.787316591463412,-0.3088176514146342,1.0268665055487805,9.959584606707317,0.0044742452118292685,0.0011297282276829265,-0.005323958582317074,-0.10272874683141704,0.031056077656813105,-1.4408676137284535,1021.1975655487806,-100.0,-100.0,-73.0,-67.0,-100.0,-79.0,-100.0,-100.0,-100.0,-100.0,-82.0,-58.0,-71.0,-46.0,-100.0,-100.0,-82.0,-69.0,-100.0,-86.0,-100.0,-100.0,-100.0,-100.0,-100.0,-100.0,-100.0,-100.0,-100.0,-100.0,-75.0,-58.0,-70.0,-100.0,-100.0,-51.0,-62.0,-66.0,-87.0,-67.0,-74.0,-77.0,-100.0,-68.0,-76.0,-61.0,-74.0,-35.0,-38.0,-100.0,-65.0,-100.0,-74.0,-57.0,-70.0,-100.0,-100.0,-51.0,-62.0,-100.0,-87.0,-64.0,-74.0,-77.0,-100.0,-68.0,-76.0,-58.0,-74.0,-34.0,-37.0,-52.0,-65.0,-100.0,-100.0,-100.0,-100.0,-100.0,-100.0,-70.0,-100.0,-100.0,-100.0,-82.0,-100.0,-100.0,-92.0,-88.0,-100.0,-90.0,-100.0,-64.0,-100.0,-100.0,-100.0,-75.0,-100.0,-100.0,-100.0,-100.0,-100.0,-100.0,-100.0,-88.0,-91.0,-100.0,-100.0,-100.0,-88.0,-91.0,-100.0,-100.0,-100.0,-87.0,-100.0,-100.0,-100.0,-100.0,-100.0,-100.0,-100.0,-100.0,-100.0,-100.0,-100.0,-100.0,-100.0,-100.0,-100.0,-100.0,-100.0,-100.0,-100.0,-100.0,-100.0,-100.0,-100.0,-100.0,-100.0,-100.0,-100.0,-100.0,-100.0,-100.0,-100.0,-100.0,-100.0,-100.0,-100.0,-100.0,-100.0,-100.0,-100.0,-100.0,-100.0,-100.0,-100.0,-100.0,-100.0,-100.0,-100.0,-100.0,-100.0,-100.0,-100.0
2021.01.10 213202,32.0,24.0,35.42414159171597,-0.12461538272189347,-32.40248478698225,-0.3203086339467455,0.9819926855621299,9.960905710059171,3.639171846153913e-05,8.467166242603513e-05,-0.002101510133846154,-0.09820662553493789,0.032152339700366926,-1.4783947778171336,1021.1857068047339,-100.0,-100.0,-100.0,-61.0,-100.0,-80.0,-100.0,-100.0,-82.0,-100.0,-81.0,-54.0,-77.0,-47.0,-100.0,-100.0,-86.0,-63.0,-100.0,-100.0,-100.0,-100.0,-74.0,-100.0,-100.0,-100.0,-100.0,-100.0,-79.0,-100.0,-77.0,-50.0,-64.0,-100.0,-100.0,-57.0,-64.0,-72.0,-82.0,-65.0,-73.0,-76.0,-100.0,-100.0,-76.0,-65.0,-74.0,-37.0,-43.0,-55.0,-58.0,-100.0,-100.0,-51.0,-64.0,-100.0,-100.0,-61.0,-64.0,-72.0,-83.0,-65.0,-73.0,-74.0,-100.0,-100.0,-76.0,-63.0,-74.0,-36.0,-43.0,-55.0,-58.0,-100.0,-100.0,-100.0,-100.0,-80.0,-100.0,-77.0,-100.0,-88.0,-100.0,-87.0,-72.0,-72.0,-90.0,-100.0,-100.0,-91.0,-87.0,-60.0,-75.0,-100.0,-100.0,-89.0,-100.0,-100.0,-100.0,-100.0,-100.0,-100.0,-64.0,-100.0,-100.0,-100.0,-80.0,-100.0,-100.0,-87.0,-86.0,-100.0,-100.0,-100.0,-100.0,-89.0,-88.0,-89.0,-100.0,-100.0,-100.0,-100.0,-100.0,-100.0,-100.0,-100.0,-100.0,-100.0,-100.0,-100.0,-100.0,-100.0,-100.0,-100.0,-100.0,-100.0,-100.0,-100.0,-100.0,-100.0,-100.0,-100.0,-100.0,-100.0,-100.0,-100.0,-100.0,-100.0,-100.0,-100.0,-100.0,-100.0,-100.0,-100.0,-100.0,-100.0,-100.0,-100.0,-100.0,-100.0,-100.0,-100.0,-100.0,-100.0,-100.0
2021.01.10 213215,33.0,24.0,38.83199944375,-3.71812494125,-34.596749493749996,-0.31414381841,0.903584348375,9.965989296875,0.0010328204791250008,0.0014737122979374994,-0.0050017645323125,-0.09039212081115688,0.03158241567580259,-1.5822480872273446,1021.1775178124999,-100.0,-100.0,-74.0,-60.0,-100.0,-100.0,-100.0,-100.0,-82.0,-81.0,-80.0,-56.0,-77.0,-50.0,-100.0,-100.0,-86.0,-100.0,-100.0,-100.0,-100.0,-100.0,-71.0,-100.0,-100.0,-100.0,-100.0,-100.0,-100.0,-100.0,-77.0,-50.0,-60.0,-100.0,-100.0,-60.0,-65.0,-59.0,-85.0,-60.0,-78.0,-79.0,-100.0,-67.0,-73.0,-63.0,-73.0,-29.0,-36.0,-58.0,-58.0,-100.0,-77.0,-50.0,-60.0,-100.0,-100.0,-61.0,-65.0,-61.0,-85.0,-59.0,-78.0,-79.0,-100.0,-67.0,-74.0,-63.0,-73.0,-29.0,-36.0,-56.0,-58.0,-100.0,-100.0,-100.0,-100.0,-100.0,-100.0,-74.0,-100.0,-91.0,-100.0,-84.0,-100.0,-100.0,-100.0,-91.0,-100.0,-100.0,-86.0,-67.0,-100.0,-100.0,-100.0,-100.0,-100.0,-100.0,-100.0,-100.0,-90.0,-100.0,-100.0,-100.0,-100.0,-100.0,-100.0,-100.0,-100.0,-89.0,-89.0,-100.0,-88.0,-89.0,-100.0,-89.0,-100.0,-100.0,-93.0,-100.0,-100.0,-100.0,-100.0,-100.0,-100.0,-100.0,-100.0,-100.0,-100.0,-100.0,-100.0,-100.0,-100.0,-100.0,-100.0,-100.0,-100.0,-100.0,-100.0,-100.0,-100.0,-100.0,-100.0,-100.0,-100.0,-100.0,-100.0,-100.0,-100.0,-100.0,-100.0,-100.0,-100.0,-100.0,-100.0,-100.0,-100.0,-100.0,-100.0,-100.0,-100.0,-100.0,-100.0,-100.0,-100.0
2021.01.10 213228,34.0,24.0,38.57164501265823,-6.837341628481013,-33.120379316455704,-0.31748386943037976,0.7864889627215189,9.985035155063292,0.0021271102015822784,0.0003183844731012656,-0.008186576380189874,-0.07856035307992858,0.03180706451493724,-1.6795500554615939,1021.1688319620254,-100.0,-100.0,-100.0,-56.0,-100.0,-81.0,-100.0,-100.0,-81.0,-100.0,-78.0,-49.0,-69.0,-52.0,-100.0,-100.0,-100.0,-71.0,-100.0,-75.0,-100.0,-100.0,-68.0,-100.0,-100.0,-100.0,-100.0,-100.0,-100.0,-100.0,-82.0,-54.0,-64.0,-100.0,-100.0,-55.0,-64.0,-75.0,-81.0,-57.0,-72.0,-76.0,-100.0,-64.0,-71.0,-61.0,-73.0,-33.0,-41.0,-100.0,-57.0,-100.0,-82.0,-54.0,-64.0,-100.0,-100.0,-54.0,-64.0,-100.0,-81.0,-60.0,-72.0,-76.0,-100.0,-64.0,-71.0,-62.0,-73.0,-32.0,-41.0,-100.0,-57.0,-100.0,-100.0,-100.0,-100.0,-100.0,-100.0,-72.0,-100.0,-100.0,-100.0,-76.0,-71.0,-71.0,-100.0,-90.0,-100.0,-100.0,-100.0,-66.0,-100.0,-100.0,-81.0,-100.0,-100.0,-100.0,-100.0,-79.0,-100.0,-100.0,-67.0,-86.0,-100.0,-100.0,-83.0,-100.0,-86.0,-84.0,-85.0,-82.0,-100.0,-90.0,-100.0,-100.0,-100.0,-100.0,-100.0,-90.0,-100.0,-100.0,-100.0,-100.0,-100.0,-100.0,-100.0,-100.0,-100.0,-100.0,-100.0,-100.0,-100.0,-100.0,-100.0,-100.0,-100.0,-100.0,-100.0,-100.0,-100.0,-100.0,-100.0,-100.0,-100.0,-100.0,-100.0,-100.0,-100.0,-100.0,-100.0,-100.0,-100.0,-100.0,-100.0,-100.0,-100.0,-100.0,-100.0,-100.0,-100.0,-100.0,-100.0,-100.0,-100.0
2021.01.10 213241,35.0,24.0,35.89249961309523,-11.567856904761905,-31.725356732142856,-0.3628608983928571,0.9759092595238095,9.94993625297619,0.004635652788928571,-0.0007177666926785712,-0.006052598317499999,-0.0976855219785301,0.03653663654057748,-1.8050535378001986,1021.1586428571429,-100.0,-100.0,-72.0,-59.0,-100.0,-78.0,-100.0,-100.0,-82.0,-100.0,-100.0,-54.0,-62.0,-52.0,-100.0,-100.0,-91.0,-72.0,-100.0,-66.0,-100.0,-100.0,-100.0,-100.0,-100.0,-100.0,-100.0,-100.0,-87.0,-100.0,-74.0,-48.0,-54.0,-100.0,-100.0,-60.0,-67.0,-100.0,-83.0,-57.0,-68.0,-70.0,-88.0,-62.0,-66.0,-66.0,-74.0,-37.0,-38.0,-53.0,-59.0,-100.0,-74.0,-48.0,-54.0,-100.0,-100.0,-60.0,-67.0,-100.0,-84.0,-56.0,-69.0,-78.0,-89.0,-62.0,-66.0,-66.0,-74.0,-38.0,-38.0,-54.0,-60.0,-100.0,-100.0,-100.0,-100.0,-100.0,-100.0,-77.0,-100.0,-100.0,-88.0,-100.0,-67.0,-67.0,-100.0,-100.0,-100.0,-100.0,-81.0,-65.0,-100.0,-100.0,-100.0,-88.0,-100.0,-100.0,-100.0,-100.0,-100.0,-100.0,-58.0,-88.0,-100.0,-100.0,-80.0,-100.0,-88.0,-83.0,-83.0,-100.0,-100.0,-100.0,-79.0,-83.0,-100.0,-100.0,-100.0,-100.0,-100.0,-100.0,-100.0,-100.0,-100.0,-100.0,-100.0,-100.0,-100.0,-100.0,-100.0,-100.0,-100.0,-100.0,-100.0,-100.0,-100.0,-100.0,-100.0,-100.0,-100.0,-100.0,-100.0,-100.0,-100.0,-100.0,-100.0,-100.0,-100.0,-100.0,-100.0,-100.0,-100.0,-100.0,-100.0,-100.0,-100.0,-100.0,-100.0,-100.0,-100.0,-100.0,-100.0,-100.0,-100.0
2021.01.10 213254,36.0,24.0,30.33854254966888,-12.181589102649005,-29.34874136423841,-0.3126352070794702,1.0065626489403972,9.954348158940398,0.001642345754966887,0.00023291757251655632,-0.0011600896362251656,-0.10072055592244819,0.03140810819956414,-1.8693770651785744,1021.1545861589403,-100.0,-100.0,-100.0,-62.0,-100.0,-100.0,-100.0,-100.0,-84.0,-100.0,-100.0,-53.0,-67.0,-50.0,-100.0,-100.0,-87.0,-76.0,-100.0,-77.0,-90.0,-100.0,-100.0,-100.0,-100.0,-100.0,-100.0,-100.0,-100.0,-76.0,-100.0,-50.0,-55.0,-100.0,-100.0,-58.0,-67.0,-69.0,-87.0,-59.0,-70.0,-80.0,-90.0,-62.0,-69.0,-65.0,-73.0,-41.0,-46.0,-55.0,-60.0,-74.0,-100.0,-50.0,-55.0,-100.0,-100.0,-59.0,-67.0,-70.0,-86.0,-58.0,-70.0,-81.0,-100.0,-62.0,-69.0,-65.0,-73.0,-41.0,-46.0,-54.0,-60.0,-100.0,-100.0,-100.0,-100.0,-100.0,-100.0,-74.0,-100.0,-88.0,-100.0,-77.0,-72.0,-73.0,-100.0,-100.0,-100.0,-100.0,-87.0,-73.0,-100.0,-100.0,-100.0,-82.0,-100.0,-100.0,-100.0,-79.0,-90.0,-100.0,-100.0,-89.0,-100.0,-100.0,-100.0,-100.0,-88.0,-84.0,-85.0,-100.0,-100.0,-85.0,-100.0,-86.0,-100.0,-100.0,-100.0,-88.0,-100.0,-100.0,-100.0,-100.0,-100.0,-100.0,-100.0,-100.0,-100.0,-100.0,-100.0,-100.0,-100.0,-100.0,-100.0,-100.0,-100.0,-100.0,-100.0,-100.0,-100.0,-100.0,-100.0,-100.0,-100.0,-100.0,-100.0,-100.0,-100.0,-100.0,-100.0,-100.0,-100.0,-100.0,-100.0,-100.0,-100.0,-100.0,-100.0,-100.0,-100.0,-100.0,-100.0,-100.0,-100.0
2021.01.10 213308,37.0,24.0,21.271124699999998,-12.9839997625,-27.263999612500005,-0.38683998756250004,0.96523692725,9.960811715624999,0.0018574885669375,-0.0011186470475625001,-0.005918062486999999,-0.09652373217977579,0.038831419002963184,-2.038524728268385,1021.1518094999999,-100.0,-100.0,-100.0,-62.0,-100.0,-100.0,-100.0,-100.0,-83.0,-100.0,-87.0,-62.0,-70.0,-51.0,-100.0,-100.0,-100.0,-77.0,-100.0,-70.0,-90.0,-100.0,-100.0,-79.0,-71.0,-100.0,-100.0,-100.0,-100.0,-74.0,-100.0,-52.0,-60.0,-100.0,-100.0,-64.0,-68.0,-74.0,-85.0,-57.0,-74.0,-82.0,-89.0,-57.0,-75.0,-63.0,-73.0,-41.0,-52.0,-54.0,-64.0,-100.0,-100.0,-52.0,-60.0,-100.0,-100.0,-63.0,-68.0,-74.0,-85.0,-59.0,-74.0,-100.0,-89.0,-58.0,-74.0,-64.0,-74.0,-41.0,-52.0,-53.0,-64.0,-100.0,-100.0,-100.0,-100.0,-100.0,-100.0,-76.0,-80.0,-100.0,-100.0,-75.0,-100.0,-100.0,-100.0,-89.0,-100.0,-100.0,-86.0,-72.0,-100.0,-100.0,-100.0,-85.0,-100.0,-100.0,-100.0,-79.0,-87.0,-100.0,-66.0,-86.0,-100.0,-100.0,-83.0,-100.0,-85.0,-89.0,-88.0,-100.0,-100.0,-89.0,-100.0,-83.0,-100.0,-100.0,-100.0,-80.0,-100.0,-100.0,-100.0,-100.0,-100.0,-100.0,-100.0,-100.0,-100.0,-100.0,-100.0,-100.0,-100.0,-100.0,-100.0,-100.0,-100.0,-100.0,-100.0,-100.0,-100.0,-100.0,-100.0,-100.0,-100.0,-100.0,-100.0,-100.0,-100.0,-100.0,-100.0,-100.0,-100.0,-100.0,-100.0,-100.0,-100.0,-100.0,-100.0,-100.0,-100.0,-100.0,-100.0,-100.0,-100.0
2021.01.10 213321,38.0,24.0,17.94421030994152,-11.915087450292397,-24.07789442105263,-0.3496621341520468,0.8778727612865499,9.97001231871345,0.0009302728564327488,-0.0014036504383040938,-0.005726497292807017,-0.08775157938923749,0.03504216003269824,-2.0873605270831908,1021.1483167836258,-100.0,-100.0,-100.0,-71.0,-100.0,-87.0,-100.0,-100.0,-82.0,-88.0,-100.0,-68.0,-61.0,-60.0,-100.0,-100.0,-88.0,-79.0,-100.0,-66.0,-100.0,-100.0,-100.0,-81.0,-69.0,-100.0,-100.0,-100.0,-100.0,-65.0,-80.0,-53.0,-67.0,-100.0,-100.0,-60.0,-65.0,-73.0,-87.0,-57.0,-73.0,-69.0,-100.0,-57.0,-62.0,-63.0,-73.0,-46.0,-50.0,-55.0,-63.0,-67.0,-100.0,-55.0,-67.0,-100.0,-100.0,-61.0,-66.0,-74.0,-87.0,-56.0,-73.0,-78.0,-100.0,-57.0,-62.0,-64.0,-73.0,-45.0,-50.0,-55.0,-63.0,-100.0,-100.0,-100.0,-100.0,-100.0,-100.0,-77.0,-100.0,-100.0,-100.0,-76.0,-63.0,-64.0,-100.0,-100.0,-100.0,-100.0,-100.0,-100.0,-100.0,-100.0,-100.0,-83.0,-100.0,-100.0,-100.0,-82.0,-91.0,-100.0,-70.0,-87.0,-100.0,-100.0,-83.0,-100.0,-86.0,-84.0,-85.0,-69.0,-100.0,-82.0,-100.0,-80.0,-100.0,-100.0,-100.0,-78.0,-61.0,-86.0,-100.0,-100.0,-100.0,-100.0,-100.0,-100.0,-100.0,-100.0,-100.0,-100.0,-100.0,-100.0,-100.0,-100.0,-100.0,-100.0,-100.0,-100.0,-100.0,-100.0,-100.0,-100.0,-100.0,-100.0,-100.0,-100.0,-100.0,-100.0,-100.0,-100.0,-100.0,-100.0,-100.0,-100.0,-100.0,-100.0,-100.0,-100.0,-100.0,-100.0,-100.0,-100.0,-100.0
2021.01.10 213335,39.0,24.0,15.73309065151515,-9.573454321212122,-24.492727048484852,-0.2899104013939394,0.8839662633333334,9.9702827,0.0015785499396969698,-9.209257212121221e-05,-0.00450983312,-0.0884077859873121,0.029070578928980358,-2.0241694565975306,1021.1530964848483,-100.0,-100.0,-100.0,-72.0,-100.0,-100.0,-100.0,-100.0,-87.0,-88.0,-100.0,-70.0,-59.0,-65.0,-100.0,-100.0,-100.0,-100.0,-100.0,-64.0,-100.0,-100.0,-100.0,-100.0,-100.0,-100.0,-100.0,-100.0,-100.0,-72.0,-100.0,-58.0,-69.0,-100.0,-100.0,-58.0,-72.0,-66.0,-88.0,-55.0,-75.0,-80.0,-100.0,-58.0,-63.0,-68.0,-73.0,-53.0,-63.0,-62.0,-61.0,-100.0,-100.0,-58.0,-69.0,-100.0,-100.0,-61.0,-72.0,-65.0,-89.0,-57.0,-75.0,-81.0,-100.0,-59.0,-63.0,-68.0,-73.0,-53.0,-63.0,-62.0,-61.0,-100.0,-100.0,-100.0,-100.0,-100.0,-100.0,-85.0,-100.0,-100.0,-100.0,-71.0,-67.0,-67.0,-100.0,-100.0,-100.0,-100.0,-81.0,-69.0,-100.0,-100.0,-100.0,-81.0,-100.0,-100.0,-100.0,-100.0,-90.0,-100.0,-77.0,-84.0,-100.0,-100.0,-85.0,-100.0,-85.0,-80.0,-79.0,-100.0,-87.0,-85.0,-100.0,-82.0,-100.0,-90.0,-100.0,-100.0,-100.0,-100.0,-90.0,-85.0,-100.0,-100.0,-100.0,-100.0,-100.0,-100.0,-100.0,-100.0,-100.0,-100.0,-100.0,-100.0,-100.0,-100.0,-100.0,-100.0,-100.0,-100.0,-100.0,-100.0,-100.0,-100.0,-100.0,-100.0,-100.0,-100.0,-100.0,-100.0,-100.0,-100.0,-100.0,-100.0,-100.0,-100.0,-100.0,-100.0,-100.0,-100.0,-100.0,-100.0,-100.0
2021.01.10 213350,40.0,24.0,13.770545218181818,-3.8149090321212125,-26.230181430303034,-0.34876602918787875,1.137672325151515,9.94429396060606,0.004229334698363636,-0.00017354122393939376,-0.004731965799636364,-0.11382416513833128,0.035078447758022546,-1.626401795762958,1021.1510287878788,-100.0,-100.0,-89.0,-67.0,-100.0,-100.0,-100.0,-100.0,-84.0,-84.0,-71.0,-67.0,-67.0,-60.0,-100.0,-100.0,-100.0,-78.0,-100.0,-76.0,-100.0,-100.0,-100.0,-77.0,-100.0,-100.0,-100.0,-100.0,-100.0,-66.0,-88.0,-61.0,-73.0,-100.0,-100.0,-66.0,-74.0,-75.0,-100.0,-59.0,-65.0,-78.0,-100.0,-57.0,-67.0,-63.0,-76.0,-55.0,-59.0,-56.0,-57.0,-65.0,-88.0,-54.0,-73.0,-100.0,-100.0,-66.0,-74.0,-78.0,-100.0,-60.0,-65.0,-78.0,-100.0,-57.0,-67.0,-62.0,-76.0,-56.0,-60.0,-56.0,-58.0,-100.0,-100.0,-100.0,-100.0,-100.0,-100.0,-81.0,-87.0,-100.0,-100.0,-76.0,-63.0,-63.0,-100.0,-100.0,-100.0,-100.0,-77.0,-79.0,-100.0,-100.0,-89.0,-100.0,-100.0,-100.0,-100.0,-100.0,-88.0,-100.0,-100.0,-86.0,-100.0,-100.0,-87.0,-100.0,-86.0,-82.0,-83.0,-100.0,-85.0,-86.0,-100.0,-72.0,-100.0,-91.0,-100.0,-100.0,-57.0,-100.0,-89.0,-100.0,-90.0,-93.0,-100.0,-100.0,-100.0,-100.0,-100.0,-100.0,-100.0,-100.0,-100.0,-100.0,-100.0,-100.0,-100.0,-100.0,-100.0,-100.0,-100.0,-100.0,-100.0,-100.0,-100.0,-100.0,-100.0,-100.0,-100.0,-100.0,-100.0,-100.0,-100.0,-100.0,-100.0,-100.0,-100.0,-100.0,-100.0,-100.0,-100.0,-100.0,-100.0
2021.01.10 213403,41.0,24.0,15.229879289156628,1.531084313433735,-29.082288783132533,-0.20071522999156624,0.9691620554216867,9.966745807228916,0.0011796028314457832,-0.0007987247455421688,-0.004364220059457831,-0.09690114860254594,0.02014531986963235,-1.2773474670318237,1021.1568239759036,-100.0,-100.0,-100.0,-60.0,-100.0,-100.0,-100.0,-100.0,-85.0,-82.0,-75.0,-72.0,-67.0,-62.0,-100.0,-100.0,-100.0,-81.0,-100.0,-76.0,-100.0,-100.0,-100.0,-100.0,-71.0,-100.0,-100.0,-100.0,-100.0,-100.0,-86.0,-62.0,-78.0,-100.0,-100.0,-67.0,-73.0,-100.0,-91.0,-58.0,-69.0,-84.0,-100.0,-59.0,-60.0,-70.0,-75.0,-56.0,-64.0,-53.0,-66.0,-100.0,-87.0,-63.0,-78.0,-100.0,-100.0,-67.0,-74.0,-100.0,-91.0,-57.0,-69.0,-84.0,-100.0,-60.0,-60.0,-70.0,-75.0,-55.0,-64.0,-53.0,-66.0,-100.0,-100.0,-100.0,-100.0,-100.0,-100.0,-90.0,-100.0,-100.0,-100.0,-78.0,-73.0,-73.0,-100.0,-100.0,-100.0,-100.0,-74.0,-100.0,-100.0,-100.0,-100.0,-80.0,-100.0,-100.0,-100.0,-100.0,-87.0,-100.0,-100.0,-87.0,-100.0,-100.0,-100.0,-100.0,-88.0,-84.0,-85.0,-82.0,-100.0,-82.0,-73.0,-78.0,-100.0,-100.0,-100.0,-100.0,-100.0,-81.0,-100.0,-82.0,-87.0,-87.0,-100.0,-100.0,-100.0,-100.0,-100.0,-100.0,-100.0,-100.0,-100.0,-100.0,-100.0,-100.0,-100.0,-100.0,-100.0,-100.0,-100.0,-100.0,-100.0,-100.0,-100.0,-100.0,-100.0,-100.0,-100.0,-100.0,-100.0,-100.0,-100.0,-100.0,-100.0,-100.0,-100.0,-100.0,-100.0,-100.0,-100.0,-100.0,-100.0
2021.01.10 213417,42.0,24.0,19.208363418181822,2.488363587272727,-31.01854492727272,-0.3196574534606061,1.0543515644848485,9.951230021212123,0.003462976487454546,0.0009519316397575753,-0.004687539250545453,-0.10549878103263446,0.03213735852729186,-1.2603051554072986,1021.1597913939396,-100.0,-100.0,-100.0,-66.0,-100.0,-100.0,-100.0,-100.0,-89.0,-100.0,-72.0,-100.0,-68.0,-100.0,-100.0,-100.0,-100.0,-100.0,-100.0,-66.0,-100.0,-100.0,-100.0,-100.0,-68.0,-100.0,-100.0,-100.0,-100.0,-64.0,-100.0,-65.0,-74.0,-100.0,-100.0,-64.0,-76.0,-82.0,-100.0,-58.0,-66.0,-82.0,-89.0,-53.0,-57.0,-72.0,-74.0,-56.0,-63.0,-57.0,-65.0,-66.0,-100.0,-65.0,-75.0,-100.0,-100.0,-65.0,-77.0,-82.0,-89.0,-58.0,-66.0,-82.0,-91.0,-52.0,-57.0,-72.0,-74.0,-55.0,-64.0,-57.0,-65.0,-100.0,-100.0,-100.0,-100.0,-100.0,-100.0,-87.0,-100.0,-100.0,-100.0,-74.0,-76.0,-77.0,-100.0,-100.0,-100.0,-100.0,-72.0,-100.0,-100.0,-100.0,-100.0,-100.0,-100.0,-100.0,-100.0,-80.0,-87.0,-100.0,-77.0,-80.0,-100.0,-100.0,-100.0,-100.0,-80.0,-87.0,-87.0,-100.0,-100.0,-82.0,-100.0,-73.0,-100.0,-100.0,-100.0,-100.0,-69.0,-76.0,-100.0,-77.0,-87.0,-87.0,-91.0,-80.0,-100.0,-100.0,-100.0,-100.0,-100.0,-100.0,-100.0,-100.0,-100.0,-100.0,-100.0,-100.0,-100.0,-100.0,-100.0,-100.0,-100.0,-100.0,-100.0,-100.0,-100.0,-100.0,-100.0,-100.0,-100.0,-100.0,-100.0,-100.0,-100.0,-100.0,-100.0,-100.0,-100.0,-100.0,-100.0,-100.0,-100.0
2021.01.10 213431,43.0,24.0,22.859276837349395,2.877831275903614,-31.573373036144577,-0.3263713861807229,0.9398538268674698,9.962173659638555,0.0011280841501807228,-0.001994695911506024,-0.009247462111144578,-0.09402338231363924,0.03281177902953269,-1.30573635575283,1021.1672169879519,-100.0,-100.0,-100.0,-73.0,-100.0,-92.0,-100.0,-100.0,-85.0,-81.0,-73.0,-80.0,-64.0,-100.0,-100.0,-100.0,-100.0,-100.0,-100.0,-74.0,-100.0,-100.0,-87.0,-100.0,-62.0,-100.0,-100.0,-100.0,-100.0,-68.0,-100.0,-66.0,-76.0,-100.0,-100.0,-64.0,-71.0,-75.0,-89.0,-60.0,-65.0,-100.0,-100.0,-48.0,-58.0,-74.0,-73.0,-68.0,-62.0,-53.0,-59.0,-64.0,-89.0,-66.0,-76.0,-100.0,-100.0,-63.0,-71.0,-76.0,-91.0,-61.0,-65.0,-100.0,-100.0,-49.0,-58.0,-75.0,-73.0,-65.0,-63.0,-53.0,-59.0,-100.0,-100.0,-100.0,-100.0,-100.0,-100.0,-90.0,-100.0,-100.0,-100.0,-68.0,-100.0,-100.0,-100.0,-100.0,-100.0,-100.0,-72.0,-84.0,-100.0,-100.0,-100.0,-71.0,-100.0,-100.0,-100.0,-100.0,-86.0,-100.0,-100.0,-86.0,-100.0,-100.0,-100.0,-100.0,-86.0,-85.0,-85.0,-79.0,-83.0,-79.0,-100.0,-76.0,-100.0,-100.0,-100.0,-85.0,-100.0,-77.0,-89.0,-72.0,-86.0,-86.0,-100.0,-76.0,-87.0,-100.0,-100.0,-100.0,-100.0,-100.0,-100.0,-100.0,-100.0,-100.0,-100.0,-100.0,-100.0,-100.0,-100.0,-100.0,-100.0,-100.0,-100.0,-100.0,-100.0,-100.0,-100.0,-100.0,-100.0,-100.0,-100.0,-100.0,-100.0,-100.0,-100.0,-100.0,-100.0,-100.0,-100.0,-100.0,-100.0
2021.01.10 213444,44.0,24.0,23.694193306451613,2.4496773935483867,-29.349354430107528,-0.44699566026881726,0.8502893672580646,9.974407244623658,-0.0003185957459139781,0.0016829994037634408,-0.008184996602741934,-0.08490948385048293,0.044767323150349515,-1.348035829682504,1021.1762462903226,-100.0,-100.0,-100.0,-100.0,-100.0,-90.0,-100.0,-100.0,-86.0,-100.0,-75.0,-100.0,-67.0,-100.0,-100.0,-100.0,-100.0,-100.0,-100.0,-64.0,-100.0,-100.0,-100.0,-71.0,-62.0,-100.0,-100.0,-100.0,-100.0,0.0,-100.0,-100.0,-83.0,-100.0,-100.0,-100.0,-69.0,-81.0,-89.0,0.0,-61.0,-84.0,-100.0,-53.0,-50.0,-72.0,-77.0,-63.0,-70.0,-53.0,-61.0,-100.0,-100.0,-100.0,-84.0,-100.0,-100.0,-100.0,-69.0,-81.0,-89.0,0.0,-61.0,-83.0,-100.0,-53.0,-50.0,-72.0,-77.0,-63.0,-70.0,-53.0,-61.0,-100.0,-100.0,-100.0,-100.0,-100.0,-100.0,-90.0,-100.0,-100.0,-100.0,-75.0,-76.0,-100.0,-100.0,-100.0,-100.0,-100.0,-64.0,-86.0,-100.0,-100.0,-100.0,-100.0,-100.0,-100.0,-100.0,-71.0,-87.0,-100.0,-100.0,-80.0,-100.0,-100.0,-100.0,-100.0,-79.0,-86.0,-84.0,-100.0,-100.0,-79.0,-100.0,-79.0,-100.0,-89.0,-100.0,-86.0,-69.0,-78.0,-89.0,-78.0,-81.0,-81.0,-100.0,-100.0,-80.0,-100.0,-100.0,-100.0,-100.0,-100.0,-100.0,-100.0,-100.0,-100.0,-100.0,-100.0,-100.0,-100.0,-100.0,-100.0,-100.0,-100.0,-100.0,-100.0,-100.0,-100.0,-100.0,-100.0,-100.0,-100.0,-100.0,-100.0,-100.0,-100.0,-100.0,-100.0,-100.0,-100.0,-100.0,-100.0,-100.0
2021.01.10 213458,45.0,24.0,24.098674379518073,3.4590360957831323,-29.00746942771084,-0.47106635730120483,0.8205150919277111,9.974231484939759,0.0004473006475903614,-0.000806084554819277,-0.007102073997650603,-0.0819502535938139,0.04719863858225426,-1.3142335012734654,1021.1824657831324,-100.0,-100.0,-100.0,-79.0,-100.0,-100.0,-100.0,-100.0,-100.0,-100.0,-69.0,-100.0,-67.0,-100.0,-100.0,-100.0,-100.0,-100.0,-100.0,-64.0,-100.0,-100.0,-100.0,-100.0,-64.0,-100.0,-100.0,-100.0,-100.0,-68.0,-100.0,-78.0,-82.0,-100.0,-100.0,-70.0,-71.0,-100.0,-89.0,-61.0,-60.0,-81.0,-100.0,-48.0,-51.0,-68.0,-72.0,-67.0,-70.0,-54.0,-64.0,-75.0,-100.0,-79.0,-82.0,-100.0,-100.0,-70.0,-71.0,-100.0,-89.0,-61.0,-60.0,-100.0,-100.0,-48.0,-51.0,-69.0,-72.0,-63.0,-70.0,-54.0,-63.0,-100.0,-100.0,-100.0,-100.0,-100.0,-100.0,-100.0,-100.0,-100.0,-100.0,-66.0,-100.0,-100.0,-100.0,-100.0,-100.0,-100.0,-56.0,-100.0,-100.0,-100.0,-100.0,-70.0,-100.0,-100.0,-100.0,-100.0,-84.0,-100.0,-100.0,-83.0,-100.0,-100.0,-100.0,-100.0,-83.0,-88.0,-88.0,-100.0,-100.0,-82.0,-100.0,-85.0,-75.0,-88.0,-100.0,-100.0,-100.0,-76.0,-89.0,-75.0,-77.0,-76.0,-100.0,-73.0,-82.0,-74.0,-100.0,-100.0,-100.0,-100.0,-100.0,-100.0,-100.0,-100.0,-100.0,-100.0,-100.0,-100.0,-100.0,-100.0,-100.0,-100.0,-100.0,-100.0,-100.0,-100.0,-100.0,-100.0,-100.0,-100.0,-100.0,-100.0,-100.0,-100.0,-100.0,-100.0,-100.0,-100.0,-100.0,-100.0,-100.0
2021.01.10 213512,46.0,24.0,25.24380337423313,4.289447787116564,-29.6296929202454,-0.325312908404908,0.7422398814723927,9.98703430981595,0.0009670259206748468,-0.0009126438880368101,-0.0069800498996932525,-0.07415602470468154,0.032542868014539254,-1.3062726522515888,1021.18535,-100.0,-100.0,-100.0,-100.0,-100.0,-90.0,-100.0,-100.0,-90.0,-76.0,-69.0,-84.0,-69.0,-100.0,-100.0,-100.0,-100.0,-100.0,-100.0,-55.0,-100.0,-100.0,-100.0,-72.0,-59.0,-100.0,-100.0,-100.0,-100.0,-100.0,-100.0,-100.0,-81.0,-100.0,-100.0,-64.0,-68.0,-100.0,-89.0,-63.0,-65.0,-100.0,-100.0,-43.0,-51.0,-100.0,-73.0,-65.0,-72.0,-52.0,-55.0,-66.0,-100.0,-100.0,-81.0,-100.0,-100.0,-62.0,-68.0,-100.0,-90.0,-62.0,-65.0,-100.0,-100.0,-43.0,-51.0,-68.0,-73.0,-64.0,-72.0,-52.0,-56.0,-100.0,-100.0,-100.0,-100.0,-100.0,-100.0,-100.0,-100.0,-100.0,-100.0,-66.0,-100.0,-79.0,-100.0,-100.0,-100.0,-100.0,-54.0,-100.0,-100.0,-100.0,-100.0,-74.0,-100.0,-100.0,-100.0,-100.0,-86.0,-100.0,-100.0,-83.0,-100.0,-100.0,-100.0,-100.0,-84.0,-100.0,-100.0,-84.0,-100.0,-73.0,-77.0,-100.0,-100.0,-100.0,-100.0,-89.0,-100.0,-100.0,-100.0,-100.0,-76.0,-76.0,-100.0,-69.0,-80.0,-69.0,-100.0,-100.0,-100.0,-100.0,-100.0,-100.0,-100.0,-100.0,-100.0,-100.0,-100.0,-100.0,-100.0,-100.0,-100.0,-100.0,-100.0,-100.0,-100.0,-100.0,-100.0,-100.0,-100.0,-100.0,-100.0,-100.0,-100.0,-100.0,-100.0,-100.0,-100.0,-100.0,-100.0,-100.0,-100.0
2021.01.10 213525,47.0,24.0,25.987036753086418,6.040370282098765,-28.82111072839506,-0.2750903523765432,0.8359566163580248,9.974327188271603,0.0011156359991358021,-0.0014229011136419752,-0.003053217652345679,-0.08360218224518089,0.02761303314099797,-1.2444698884163374,1021.1897143209877,-100.0,-100.0,-100.0,-85.0,-100.0,-89.0,-100.0,-100.0,-86.0,-75.0,-69.0,-88.0,-59.0,-76.0,-100.0,-100.0,-100.0,-100.0,-100.0,-62.0,-100.0,-100.0,-100.0,-100.0,-62.0,-100.0,-100.0,-100.0,-100.0,-68.0,-100.0,-100.0,-85.0,-100.0,-100.0,-60.0,-71.0,-100.0,-100.0,-100.0,-70.0,-87.0,-100.0,-39.0,-45.0,-65.0,-73.0,-65.0,-71.0,-47.0,-60.0,-100.0,-100.0,-81.0,-86.0,-100.0,-100.0,-63.0,-71.0,-100.0,-100.0,-100.0,-70.0,-87.0,-100.0,-38.0,-45.0,-66.0,-73.0,-65.0,-71.0,-49.0,-60.0,-100.0,-100.0,-100.0,-100.0,-100.0,-100.0,-100.0,-100.0,-100.0,-100.0,-66.0,-77.0,-77.0,-100.0,-100.0,-100.0,-100.0,-56.0,-100.0,-100.0,-100.0,-100.0,-68.0,-100.0,-100.0,-100.0,-71.0,-83.0,-100.0,-100.0,-82.0,-100.0,-100.0,-100.0,-100.0,-82.0,-100.0,-100.0,-100.0,-79.0,-72.0,-71.0,-100.0,-100.0,-100.0,-100.0,-91.0,-100.0,-71.0,-88.0,-70.0,-80.0,-80.0,-100.0,-65.0,-78.0,-64.0,-100.0,-100.0,-100.0,-100.0,-100.0,-100.0,-100.0,-100.0,-100.0,-100.0,-100.0,-100.0,-100.0,-100.0,-100.0,-100.0,-100.0,-100.0,-100.0,-100.0,-100.0,-100.0,-100.0,-100.0,-100.0,-100.0,-100.0,-100.0,-100.0,-100.0,-100.0,-100.0,-100.0,-100.0,-100.0
2021.01.10 213538,48.0,24.0,26.139258975308643,5.664444365432098,-26.691481160493822,-0.2554632101358025,0.8126198304938272,9.980564098765432,0.0012815500534567904,-0.0021619728290740744,-0.0035773550704320993,-0.08121101815759395,0.025610811467983784,-1.269890029489258,1021.1956704938273,-100.0,-100.0,-100.0,-100.0,-100.0,-88.0,-100.0,-100.0,-100.0,-100.0,-62.0,-88.0,-58.0,-100.0,-100.0,-100.0,-100.0,-100.0,-100.0,-55.0,-100.0,-100.0,-100.0,-100.0,-56.0,-100.0,-100.0,-100.0,-100.0,-69.0,-100.0,-76.0,-85.0,-100.0,-100.0,-60.0,-67.0,-100.0,-100.0,-59.0,-72.0,-83.0,-100.0,-37.0,-44.0,-65.0,-71.0,-67.0,-67.0,-46.0,-51.0,-66.0,-100.0,-77.0,-86.0,-100.0,-100.0,-60.0,-67.0,-100.0,-100.0,-59.0,-72.0,-83.0,-100.0,-37.0,-44.0,-64.0,-72.0,-66.0,-67.0,-45.0,-51.0,-100.0,-100.0,-100.0,-100.0,-100.0,-100.0,-100.0,-100.0,-100.0,-100.0,-66.0,-100.0,-100.0,-100.0,-100.0,-100.0,-100.0,-58.0,-100.0,-100.0,-100.0,-100.0,-65.0,-100.0,-100.0,-100.0,-73.0,-82.0,-100.0,-93.0,-81.0,-100.0,-100.0,-100.0,-100.0,-81.0,-100.0,-100.0,-100.0,-100.0,-70.0,-74.0,-100.0,-100.0,-83.0,-100.0,-87.0,-100.0,-100.0,-82.0,-100.0,-74.0,-74.0,-100.0,-67.0,-82.0,-67.0,-88.0,-100.0,-100.0,-100.0,-100.0,-100.0,-100.0,-100.0,-100.0,-100.0,-100.0,-100.0,-100.0,-100.0,-100.0,-100.0,-100.0,-100.0,-100.0,-100.0,-100.0,-100.0,-100.0,-100.0,-100.0,-100.0,-100.0,-100.0,-100.0,-100.0,-100.0,-100.0,-100.0,-100.0,-100.0
2021.01.10 213551,49.0,24.0,27.682181406060607,1.5985454226060607,-24.616363284848482,-0.2677669881212121,1.1354231605454546,9.944613124242425,0.002344908012242424,-0.0008325351724848489,-0.005198444809333334,-0.11363116782723047,0.026919730515642556,-1.4056003534432613,1021.1906895757576,-100.0,-100.0,-100.0,-100.0,-100.0,-100.0,-100.0,-100.0,-87.0,-70.0,-63.0,-87.0,-61.0,-100.0,-100.0,-100.0,-100.0,-100.0,-100.0,-57.0,-100.0,-100.0,-100.0,-69.0,-58.0,-100.0,-100.0,-100.0,-100.0,-65.0,-100.0,-78.0,-89.0,-100.0,-100.0,-65.0,-69.0,-100.0,-100.0,-67.0,-64.0,-100.0,-100.0,-45.0,-42.0,-66.0,-74.0,-72.0,-63.0,-44.0,-56.0,-100.0,-100.0,-78.0,-88.0,-100.0,-100.0,-65.0,-69.0,-100.0,-100.0,-66.0,-64.0,-100.0,-100.0,-45.0,-42.0,-68.0,-74.0,-72.0,-63.0,-45.0,-56.0,-100.0,-100.0,-100.0,-100.0,-100.0,-100.0,-100.0,-100.0,-100.0,-100.0,-64.0,-86.0,-86.0,-100.0,-100.0,-100.0,-100.0,-57.0,-100.0,-100.0,-100.0,-100.0,-68.0,-100.0,-100.0,-100.0,-69.0,-84.0,-100.0,-100.0,-75.0,-100.0,-100.0,-100.0,-100.0,-76.0,-100.0,-100.0,-100.0,-72.0,-73.0,-100.0,-91.0,-100.0,-85.0,-100.0,-100.0,-66.0,-71.0,-87.0,-68.0,-77.0,-77.0,-100.0,-70.0,-81.0,-70.0,-100.0,-100.0,-100.0,-100.0,-100.0,-100.0,-100.0,-100.0,-100.0,-100.0,-100.0,-100.0,-100.0,-100.0,-100.0,-100.0,-100.0,-100.0,-100.0,-100.0,-100.0,-100.0,-100.0,-100.0,-100.0,-100.0,-100.0,-100.0,-100.0,-100.0,-100.0,-100.0,-100.0,-100.0,-100.0
2021.01.10 213605,50.0,24.0,28.40872693333333,1.6665454202424244,-24.157454163636363,-0.29332043037575756,0.7756579704242424,9.979119727272725,0.0013267992862424245,-0.0004771227746060606,-0.007812207373818182,-0.07752390833515105,0.029389475260607176,-1.4404995094646107,1021.1980776969697,-100.0,-100.0,-100.0,-100.0,-100.0,-89.0,-100.0,-100.0,-87.0,-100.0,-65.0,-88.0,-57.0,-100.0,-100.0,-100.0,-100.0,-100.0,-100.0,-100.0,-100.0,-100.0,-100.0,-70.0,-59.0,-100.0,-100.0,-100.0,-100.0,-62.0,-100.0,-100.0,-87.0,-100.0,-100.0,-67.0,-74.0,-100.0,-100.0,-66.0,-67.0,-100.0,-100.0,-44.0,-52.0,-70.0,-71.0,-61.0,-68.0,-44.0,-52.0,-62.0,-100.0,-100.0,-87.0,-100.0,-100.0,-62.0,-74.0,-100.0,-100.0,-61.0,-67.0,-100.0,-100.0,-43.0,-52.0,-70.0,-71.0,-63.0,-68.0,-44.0,-52.0,-100.0,-100.0,-100.0,-100.0,-100.0,-100.0,-100.0,-100.0,-100.0,-100.0,-66.0,-85.0,-100.0,-100.0,-100.0,-100.0,-100.0,-60.0,-100.0,-100.0,-100.0,-100.0,-68.0,-100.0,-100.0,-100.0,-70.0,-86.0,-100.0,-100.0,-73.0,-100.0,-100.0,-100.0,-100.0,-72.0,-100.0,-100.0,-100.0,-76.0,-74.0,-68.0,-100.0,-100.0,-81.0,-100.0,-100.0,-100.0,-71.0,-80.0,-74.0,-73.0,-73.0,-100.0,-100.0,-75.0,-70.0,-89.0,-82.0,-100.0,-100.0,-100.0,-100.0,-100.0,-100.0,-100.0,-100.0,-100.0,-100.0,-100.0,-100.0,-100.0,-100.0,-100.0,-100.0,-100.0,-100.0,-100.0,-100.0,-100.0,-100.0,-100.0,-100.0,-100.0,-100.0,-100.0,-100.0,-100.0,-100.0,-100.0,-100.0,-100.0
2021.01.10 213618,51.0,24.0,28.052624581249994,1.9758749625625,-23.6647497375,-0.3181243001125,0.9069363308125,9.97523715625,-0.003430313752375,0.0007024950496250001,-0.0027339273821875,-0.0906063744332641,0.03190579838992558,-1.4173150561749934,1021.2000513750002,-100.0,-100.0,-100.0,-88.0,-100.0,-100.0,-100.0,-100.0,-100.0,-76.0,-63.0,-90.0,-59.0,-100.0,-100.0,-100.0,-100.0,-100.0,-100.0,-64.0,-100.0,-100.0,-100.0,-68.0,-60.0,-100.0,-100.0,-100.0,-100.0,-62.0,-100.0,-74.0,-85.0,-100.0,-100.0,-66.0,-72.0,-100.0,-100.0,-63.0,-65.0,-84.0,-100.0,-44.0,-49.0,-71.0,-75.0,-62.0,-76.0,-46.0,-51.0,-62.0,-100.0,-73.0,-87.0,-100.0,-100.0,-66.0,-72.0,-100.0,-100.0,-67.0,-65.0,-82.0,-100.0,-45.0,-49.0,-70.0,-75.0,-63.0,-76.0,-46.0,-51.0,-100.0,-100.0,-100.0,-100.0,-100.0,-100.0,-100.0,-100.0,-100.0,-100.0,-61.0,-100.0,-100.0,-100.0,-100.0,-100.0,-100.0,-66.0,-100.0,-100.0,-100.0,-100.0,-70.0,-100.0,-100.0,-100.0,-69.0,-81.0,-100.0,-100.0,-79.0,-100.0,-100.0,-100.0,-100.0,-80.0,-100.0,-100.0,-100.0,-73.0,-69.0,-69.0,-100.0,-100.0,-83.0,-100.0,-100.0,-100.0,-62.0,-82.0,-76.0,-78.0,-78.0,-100.0,-72.0,-78.0,-71.0,-100.0,-100.0,-88.0,-91.0,-91.0,-100.0,-100.0,-100.0,-100.0,-100.0,-100.0,-100.0,-100.0,-100.0,-100.0,-100.0,-100.0,-100.0,-100.0,-100.0,-100.0,-100.0,-100.0,-100.0,-100.0,-100.0,-100.0,-100.0,-100.0,-100.0,-100.0,-100.0,-100.0,-100.0,-100.0
2021.01.10 213631,52.0,24.0,26.606459217391304,2.3224844308695656,-22.06993766459627,-0.29614651386335406,0.8896887226708076,9.978415378881987,-0.0008017435770186336,-0.0014955763634161496,-0.002883181471925466,-0.08888790217338137,0.029726086242228517,-1.4036533640038154,1021.1992085093167,-100.0,-100.0,-100.0,-100.0,-100.0,-91.0,-100.0,-100.0,-100.0,-80.0,-55.0,-91.0,-52.0,-100.0,-100.0,-100.0,-100.0,-100.0,-100.0,-54.0,-100.0,-100.0,-100.0,-67.0,-54.0,-100.0,-100.0,-100.0,-100.0,-67.0,-100.0,-81.0,-89.0,-100.0,-100.0,-69.0,-77.0,-100.0,-100.0,-100.0,-70.0,-100.0,-100.0,-46.0,-55.0,-66.0,-76.0,-70.0,-73.0,-45.0,-51.0,-66.0,-100.0,-81.0,-89.0,-100.0,-100.0,-68.0,-76.0,-85.0,-100.0,-63.0,-70.0,-100.0,-100.0,-46.0,-55.0,-66.0,-76.0,-69.0,-72.0,-45.0,-51.0,-100.0,-100.0,-100.0,-100.0,-100.0,-100.0,-100.0,-100.0,-100.0,-100.0,-59.0,-100.0,-100.0,-100.0,-100.0,-100.0,-100.0,-100.0,-100.0,-100.0,-100.0,-100.0,-72.0,-100.0,-100.0,-100.0,-67.0,-81.0,-100.0,-100.0,-73.0,-100.0,-100.0,-100.0,-100.0,-73.0,-100.0,-100.0,-100.0,-71.0,-67.0,-64.0,-100.0,-100.0,-79.0,-80.0,-100.0,-80.0,-100.0,-79.0,-68.0,-83.0,-84.0,-100.0,-100.0,-100.0,-100.0,-82.0,-82.0,-86.0,-86.0,-87.0,-82.0,-100.0,-100.0,-100.0,-100.0,-100.0,-100.0,-100.0,-100.0,-100.0,-100.0,-100.0,-100.0,-100.0,-100.0,-100.0,-100.0,-100.0,-100.0,-100.0,-100.0,-100.0,-100.0,-100.0,-100.0,-100.0,-100.0,-100.0,-100.0,-100.0
2021.01.10 213644,53.0,24.0,28.258147777777776,3.6003703222222225,-22.119999783950618,-0.3101916037098765,0.8269559151851853,9.98216024691358,-0.00064908582037037,0.0006547948258641977,-0.008305904521234567,-0.08260248178317219,0.031108260986878043,-1.372753006440622,1021.2001940123456,-100.0,-100.0,-100.0,-92.0,-100.0,-90.0,-100.0,-100.0,-100.0,-79.0,-50.0,-100.0,-54.0,-100.0,-100.0,-100.0,-100.0,-100.0,-100.0,-56.0,-100.0,-100.0,-100.0,-64.0,-54.0,-100.0,-100.0,-100.0,-100.0,-56.0,-100.0,-100.0,-87.0,-100.0,-100.0,-65.0,-74.0,-83.0,-100.0,-100.0,-65.0,-100.0,-100.0,-50.0,-60.0,-71.0,-76.0,-70.0,-75.0,-39.0,-48.0,-56.0,-100.0,-100.0,-88.0,-100.0,-100.0,-100.0,-74.0,-82.0,-100.0,-67.0,-65.0,-100.0,-100.0,-50.0,-60.0,-69.0,-75.0,-70.0,-75.0,-40.0,-48.0,-100.0,-100.0,-100.0,-100.0,-100.0,-100.0,-100.0,-100.0,-100.0,-100.0,-54.0,-87.0,-86.0,-100.0,-100.0,-100.0,-100.0,-100.0,-100.0,-100.0,-100.0,-100.0,-64.0,-100.0,-100.0,-100.0,-64.0,-82.0,-100.0,-100.0,-75.0,-100.0,-100.0,-100.0,-100.0,-75.0,-100.0,-100.0,-100.0,-100.0,-67.0,-61.0,-100.0,-100.0,-81.0,-100.0,-100.0,-82.0,-74.0,-82.0,-73.0,-85.0,-86.0,-91.0,-100.0,-100.0,-100.0,-81.0,-100.0,-100.0,-84.0,-84.0,-100.0,-87.0,-87.0,-100.0,-100.0,-100.0,-100.0,-100.0,-100.0,-100.0,-100.0,-100.0,-100.0,-100.0,-100.0,-100.0,-100.0,-100.0,-100.0,-100.0,-100.0,-100.0,-100.0,-100.0,-100.0,-100.0,-100.0,-100.0,-100.0,-100.0
2021.01.10 213657,54.0,24.0,31.173864533742332,2.6469938247852762,-21.894110153374232,-0.31980460779141107,0.8966045050306749,9.973594113496933,-0.000370881324417178,-0.0018158250448466256,-0.005061258360368097,-0.08961269286878265,0.03207403528246955,-1.4171049163385403,1021.1987738036811,-100.0,-100.0,-100.0,-100.0,-100.0,-100.0,-100.0,-100.0,-100.0,-100.0,-56.0,-100.0,-56.0,-87.0,-100.0,-100.0,-100.0,-100.0,-100.0,-51.0,-100.0,-100.0,-100.0,0.0,-56.0,-100.0,-100.0,-100.0,-100.0,-56.0,-100.0,-100.0,-87.0,-100.0,-100.0,-69.0,-76.0,-84.0,-100.0,-62.0,-63.0,-83.0,-100.0,-56.0,-64.0,-71.0,-76.0,-100.0,-78.0,-44.0,-46.0,-56.0,-100.0,-100.0,-85.0,-100.0,-100.0,-67.0,-76.0,-100.0,-100.0,-62.0,-63.0,-84.0,-100.0,-56.0,-64.0,-71.0,-76.0,-100.0,-78.0,-45.0,-46.0,-100.0,-100.0,-100.0,-100.0,-100.0,-100.0,-100.0,-100.0,-100.0,-100.0,-58.0,-100.0,-100.0,-100.0,-100.0,-100.0,-100.0,-83.0,-100.0,-100.0,-100.0,-100.0,-74.0,-100.0,-100.0,-100.0,-100.0,-78.0,-100.0,-100.0,-72.0,-100.0,-100.0,-100.0,-100.0,-71.0,-100.0,-100.0,-100.0,-100.0,-73.0,-70.0,-100.0,-72.0,-84.0,-100.0,-100.0,-100.0,-66.0,-83.0,-66.0,-86.0,-87.0,-100.0,-78.0,-89.0,-78.0,-100.0,-70.0,-100.0,-87.0,-86.0,-100.0,-100.0,-81.0,-90.0,-100.0,-100.0,-100.0,-100.0,-100.0,-100.0,-100.0,-100.0,-100.0,-100.0,-100.0,-100.0,-100.0,-100.0,-100.0,-100.0,-100.0,-100.0,-100.0,-100.0,-100.0,-100.0,-100.0,-100.0,-100.0,-100.0
2021.01.10 213710,55.0,24.0,31.37715942011834,0.01846154142011836,-21.54603530177515,-0.30682135847573966,0.732903102662722,9.990685393491123,0.0013123409561538453,0.0023871638020710054,-0.006677577650946745,-0.07317218645172707,0.03070190602902472,-1.5159396448078946,1021.1928578106507,-100.0,-100.0,-100.0,-100.0,-100.0,-100.0,-100.0,-100.0,-100.0,-100.0,-54.0,-100.0,-51.0,-100.0,-100.0,-100.0,-100.0,-100.0,-100.0,-65.0,-100.0,-100.0,-100.0,-66.0,-60.0,-100.0,-100.0,-100.0,-100.0,-58.0,-100.0,-100.0,-100.0,-100.0,-100.0,-71.0,-76.0,-100.0,-100.0,-65.0,-64.0,-100.0,-100.0,-63.0,-72.0,-73.0,-76.0,-100.0,-74.0,-46.0,-47.0,-58.0,-100.0,-100.0,-100.0,-100.0,-100.0,-71.0,-76.0,-100.0,-100.0,-63.0,-64.0,-100.0,-100.0,-64.0,-72.0,-62.0,-76.0,-100.0,-74.0,-46.0,-47.0,-100.0,-100.0,-100.0,-100.0,-100.0,-100.0,-100.0,-100.0,-100.0,-100.0,-66.0,-100.0,-100.0,-100.0,-100.0,-100.0,-100.0,-100.0,-100.0,-100.0,-100.0,-100.0,-64.0,-100.0,-100.0,-100.0,-65.0,-76.0,-100.0,-100.0,-70.0,-100.0,-100.0,-100.0,-100.0,-69.0,-100.0,-100.0,-100.0,-100.0,-71.0,-65.0,-100.0,-100.0,-79.0,-100.0,-100.0,-100.0,-62.0,-79.0,-62.0,-90.0,-100.0,-100.0,-100.0,-90.0,-74.0,-100.0,-70.0,-79.0,-84.0,-83.0,-79.0,-100.0,-83.0,-100.0,-100.0,-100.0,-100.0,-100.0,-100.0,-100.0,-100.0,-100.0,-100.0,-100.0,-100.0,-100.0,-100.0,-100.0,-100.0,-100.0,-100.0,-100.0,-100.0,-100.0,-100.0,-100.0,-100.0,-100.0,-100.0,-100.0
2021.01.10 213724,56.0,24.0,30.205149311377244,-2.333892171257485,-20.590778215568864,-0.4250626326347305,0.8695805355688623,9.972312311377246,-0.000988636032275449,-7.032268209580888e-05,-0.00348877582,-0.08688201255605604,0.042606060588341946,-1.584413423509655,1021.1929731736525,-100.0,-100.0,-100.0,-100.0,-100.0,-100.0,-100.0,-100.0,-100.0,-71.0,-61.0,-100.0,-53.0,-100.0,-100.0,-100.0,-100.0,-100.0,-100.0,-59.0,-100.0,-100.0,-100.0,-63.0,-56.0,-100.0,-100.0,-100.0,-100.0,-58.0,-100.0,-87.0,-89.0,-100.0,-100.0,-66.0,-76.0,-100.0,-100.0,-60.0,-63.0,-88.0,-100.0,-62.0,-64.0,-100.0,-74.0,-68.0,-75.0,-41.0,-44.0,-58.0,-100.0,-87.0,-89.0,-100.0,-100.0,-66.0,-76.0,-100.0,-100.0,-59.0,-63.0,-86.0,-100.0,-62.0,-64.0,-100.0,-74.0,-68.0,-74.0,-41.0,-44.0,-100.0,-100.0,-100.0,-100.0,-100.0,-100.0,-100.0,-100.0,-100.0,-100.0,-72.0,-100.0,-100.0,-100.0,-100.0,-100.0,-100.0,-74.0,-100.0,-100.0,-100.0,-100.0,-73.0,-100.0,-100.0,-100.0,-63.0,-75.0,-100.0,-100.0,-68.0,-100.0,-100.0,-100.0,-100.0,-67.0,-100.0,-100.0,-100.0,-100.0,-73.0,-62.0,-100.0,-67.0,-78.0,-100.0,-100.0,-100.0,-55.0,-78.0,-62.0,-100.0,-100.0,-100.0,-100.0,-100.0,-100.0,-80.0,-73.0,-82.0,-83.0,-86.0,-80.0,-100.0,-82.0,-100.0,-91.0,-100.0,-100.0,-100.0,-100.0,-100.0,-100.0,-100.0,-100.0,-100.0,-100.0,-100.0,-100.0,-100.0,-100.0,-100.0,-100.0,-100.0,-100.0,-100.0,-100.0,-100.0,-100.0,-100.0,-100.0,-100.0
2021.01.10 213737,57.0,24.0,29.20879476506024,-3.5804818825301203,-21.372650391566264,-0.49865821313253006,0.9312719387349397,9.959490843373493,0.0010176868006024104,0.0003678071361445783,-0.006520647954939759,-0.09312142561896733,0.050077621544520494,-1.621070318911449,1021.19093313253,-100.0,-100.0,-100.0,-100.0,-100.0,-100.0,-100.0,-100.0,-100.0,-100.0,-66.0,-100.0,-57.0,-100.0,-100.0,-100.0,-100.0,-90.0,-100.0,-61.0,-100.0,-100.0,-100.0,-60.0,-48.0,-100.0,-100.0,-100.0,-100.0,-56.0,-100.0,-100.0,-100.0,-100.0,-100.0,-60.0,-77.0,-100.0,-100.0,-61.0,-67.0,-100.0,-100.0,-68.0,-72.0,-72.0,-75.0,-71.0,-77.0,-38.0,-40.0,-56.0,-100.0,-100.0,-100.0,-100.0,-100.0,-59.0,-77.0,-100.0,-100.0,-60.0,-67.0,-100.0,-100.0,-68.0,-72.0,-72.0,-74.0,-71.0,-77.0,-37.0,-41.0,-100.0,-100.0,-100.0,-100.0,-100.0,-100.0,-100.0,-100.0,-100.0,-100.0,-71.0,-100.0,-100.0,-100.0,-100.0,-100.0,-100.0,-86.0,-100.0,-100.0,-100.0,-100.0,-100.0,-100.0,-100.0,-100.0,-60.0,-75.0,-100.0,-100.0,-68.0,-100.0,-100.0,-100.0,-100.0,-68.0,-100.0,-100.0,-100.0,-71.0,-66.0,-59.0,-100.0,-66.0,-73.0,-100.0,-100.0,-100.0,-100.0,-73.0,-100.0,-100.0,-100.0,-100.0,-100.0,-100.0,-100.0,-74.0,-62.0,-78.0,-85.0,-87.0,-100.0,-100.0,-75.0,-100.0,-100.0,-87.0,-84.0,-100.0,-100.0,-100.0,-100.0,-100.0,-100.0,-100.0,-100.0,-100.0,-100.0,-100.0,-100.0,-100.0,-100.0,-100.0,-100.0,-100.0,-100.0,-100.0,-100.0,-100.0,-100.0,-100.0
2021.01.10 213751,58.0,24.0,27.907999654545456,-2.44909086830303,-23.141090648484848,-0.476083407878788,0.8109046015151515,9.98014995151515,0.0023041837036969696,-0.0005474648774545449,-0.00798250929460606,-0.08097587701949202,0.04768389978192065,-1.5870350779909077,1021.1849878181818,-100.0,-100.0,-100.0,-100.0,-100.0,-78.0,-100.0,-100.0,-89.0,-62.0,-61.0,-90.0,-63.0,-100.0,-100.0,-100.0,-100.0,-100.0,-100.0,-58.0,-100.0,-100.0,-100.0,-63.0,-49.0,-100.0,-100.0,-100.0,-100.0,-48.0,-100.0,-100.0,-100.0,-100.0,-100.0,-67.0,-78.0,-82.0,-100.0,-62.0,-67.0,-100.0,-100.0,-64.0,-75.0,-100.0,-77.0,-76.0,-77.0,-39.0,-40.0,-50.0,-100.0,-100.0,-100.0,-100.0,-100.0,-67.0,-78.0,-80.0,-100.0,-61.0,-67.0,-100.0,-100.0,-63.0,-75.0,-100.0,-77.0,-76.0,-77.0,-40.0,-40.0,-100.0,-100.0,-100.0,-100.0,-100.0,-100.0,-100.0,-100.0,-100.0,-100.0,-67.0,-100.0,-100.0,-100.0,-100.0,-100.0,-100.0,-100.0,-100.0,-100.0,-100.0,-100.0,-58.0,-100.0,-100.0,-100.0,-63.0,-73.0,-100.0,-100.0,-69.0,-100.0,-100.0,-100.0,-100.0,-69.0,-100.0,-100.0,-100.0,-100.0,-61.0,-62.0,-100.0,-71.0,-79.0,-70.0,-100.0,-100.0,-63.0,-79.0,-63.0,-100.0,-100.0,-100.0,-84.0,-100.0,-84.0,-82.0,-68.0,-77.0,-84.0,-85.0,-75.0,-90.0,-82.0,-100.0,-100.0,-76.0,-100.0,-88.0,-100.0,-100.0,-100.0,-100.0,-100.0,-100.0,-100.0,-100.0,-100.0,-100.0,-100.0,-100.0,-100.0,-100.0,-100.0,-100.0,-100.0,-100.0,-100.0,-100.0,-100.0,-100.0
2021.01.10 213804,59.0,24.0,23.82487475,-2.737874958125,-24.0742497125,-0.382664970375,0.7200033258125,9.982030993749998,-0.0009143126180000003,-0.000664316005375,-0.00035155299231250033,-0.07196368107106532,0.038351564365439066,-1.6104873985052108,1021.1825511250001,-100.0,-100.0,-100.0,-100.0,-100.0,-100.0,-100.0,-100.0,-88.0,-100.0,-60.0,-100.0,-59.0,-80.0,-100.0,-100.0,-100.0,-100.0,-100.0,-65.0,-100.0,-100.0,-100.0,-61.0,-51.0,-100.0,-100.0,-100.0,-100.0,-46.0,-100.0,-100.0,-100.0,-100.0,-100.0,-63.0,-78.0,-100.0,-100.0,-55.0,-62.0,-81.0,-100.0,-71.0,-76.0,-100.0,-81.0,-100.0,-70.0,-32.0,-37.0,-46.0,-100.0,-100.0,-100.0,-100.0,-100.0,-72.0,-79.0,-100.0,-100.0,-54.0,-62.0,-83.0,-100.0,-71.0,-76.0,-100.0,-82.0,-100.0,-73.0,-32.0,-38.0,-100.0,-100.0,-100.0,-100.0,-100.0,-100.0,-100.0,-100.0,-100.0,-100.0,-66.0,-100.0,-100.0,-100.0,-100.0,-100.0,-100.0,-100.0,-100.0,-100.0,-100.0,-100.0,-68.0,-100.0,-100.0,-100.0,-61.0,-72.0,-100.0,-100.0,-68.0,-100.0,-100.0,-100.0,-100.0,-68.0,-100.0,-100.0,-100.0,-66.0,-100.0,-52.0,-100.0,-70.0,-68.0,-100.0,-100.0,-100.0,-57.0,-68.0,-57.0,-100.0,-100.0,-87.0,-100.0,-100.0,-100.0,-74.0,-68.0,-78.0,-85.0,-84.0,-73.0,-100.0,-74.0,-100.0,-100.0,-70.0,-100.0,-100.0,-87.0,-100.0,-100.0,-100.0,-100.0,-100.0,-100.0,-100.0,-100.0,-100.0,-100.0,-100.0,-100.0,-100.0,-100.0,-100.0,-100.0,-100.0,-100.0,-100.0,-100.0,-100.0
2021.01.10 213817,60.0,24.0,22.253891976047907,0.03952095646706592,-25.48383202994012,-0.43729207059880243,0.6997590649700599,9.988599044910178,0.0008622490810778441,0.0008075674765868268,-0.004747085069520958,-0.06987612147977249,0.04374858067778052,-1.480451279057714,1021.1819273652698,-100.0,-100.0,-100.0,-100.0,-100.0,-100.0,-100.0,-100.0,-100.0,-60.0,-76.0,-100.0,-69.0,-100.0,-100.0,-100.0,-100.0,-100.0,-100.0,-74.0,-100.0,-100.0,-100.0,-48.0,-58.0,-100.0,-100.0,-100.0,-100.0,-45.0,-100.0,-84.0,-100.0,-100.0,-100.0,-69.0,-80.0,-100.0,-100.0,-59.0,-61.0,-84.0,-100.0,-100.0,-73.0,-100.0,-79.0,-59.0,-74.0,-30.0,-100.0,-46.0,-100.0,-85.0,-100.0,-100.0,-100.0,-67.0,-80.0,-100.0,-100.0,-59.0,-61.0,-83.0,-100.0,-100.0,-73.0,-100.0,-79.0,-60.0,-74.0,-30.0,-100.0,-100.0,-100.0,-100.0,-100.0,-100.0,-100.0,-100.0,-100.0,-100.0,-100.0,-76.0,-100.0,-100.0,-100.0,-100.0,-100.0,-100.0,-89.0,-100.0,-100.0,-100.0,-100.0,-100.0,-100.0,-100.0,-100.0,-48.0,-66.0,-100.0,-100.0,-58.0,-100.0,-100.0,-100.0,-100.0,-58.0,-100.0,-100.0,-100.0,-59.0,-78.0,-50.0,-100.0,-66.0,-56.0,-66.0,-100.0,-100.0,-59.0,-56.0,-59.0,-100.0,-100.0,-100.0,-100.0,-100.0,-100.0,-73.0,-59.0,-72.0,-78.0,-78.0,-100.0,-83.0,-68.0,-100.0,-100.0,-100.0,-80.0,-100.0,-90.0,-100.0,-100.0,-100.0,-100.0,-100.0,-100.0,-100.0,-100.0,-100.0,-100.0,-100.0,-100.0,-100.0,-100.0,-100.0,-100.0,-100.0,-100.0,-100.0,-100.0,-100.0
2021.01.10 213834,61.0,24.0,25.10022822857143,2.9365713782857146,-25.68479968,-0.33136763386285717,0.8012748480571429,9.980883428571428,0.0043601816204571426,-0.0012902345484571427,-0.0049611858823428575,-0.0800922639987298,0.03319203224565297,-1.3643990169252669,1021.1792682857143,-100.0,-100.0,-100.0,-100.0,-100.0,-100.0,-100.0,-100.0,-100.0,-100.0,-80.0,-100.0,-68.0,-86.0,-100.0,-100.0,-100.0,-100.0,-100.0,-63.0,-100.0,-100.0,-100.0,-55.0,-61.0,-100.0,-100.0,-100.0,-100.0,-45.0,-100.0,-100.0,-100.0,-100.0,-100.0,-69.0,-81.0,-100.0,-100.0,-65.0,-63.0,-78.0,-100.0,-100.0,-80.0,-70.0,-80.0,-65.0,-77.0,-30.0,-100.0,-42.0,-100.0,-82.0,-100.0,-100.0,-100.0,-100.0,-80.0,-100.0,-100.0,-58.0,-63.0,-100.0,-100.0,-100.0,-80.0,-66.0,-80.0,-62.0,-77.0,-30.0,-100.0,-100.0,-100.0,-100.0,-100.0,-100.0,-100.0,-100.0,-100.0,-100.0,-100.0,-73.0,-100.0,-100.0,-100.0,-100.0,-100.0,-100.0,-100.0,-100.0,-100.0,-100.0,-100.0,-57.0,-100.0,-100.0,-100.0,-100.0,-67.0,-100.0,-100.0,-55.0,-100.0,-100.0,-100.0,-100.0,-54.0,-100.0,-100.0,-100.0,-100.0,-76.0,-43.0,-100.0,-66.0,-60.0,-100.0,-100.0,-100.0,-58.0,-61.0,-56.0,-100.0,-100.0,-100.0,-100.0,-100.0,-100.0,-73.0,-64.0,-72.0,-77.0,-78.0,-74.0,-100.0,-68.0,-100.0,-100.0,-76.0,-79.0,-86.0,-89.0,-89.0,-100.0,-100.0,-100.0,-100.0,-100.0,-100.0,-100.0,-100.0,-100.0,-100.0,-100.0,-100.0,-100.0,-100.0,-100.0,-100.0,-100.0,-100.0,-100.0,-100.0
2021.01.10 213848,62.0,24.0,28.43222174691358,2.0970369881481483,-25.30814786419753,-0.3429576965123457,0.7903619354320987,9.981332604938272,0.0015492747287654323,0.0023139348537654317,-0.0021218366899382717,-0.07899880487425823,0.03442357323077836,-1.4195130791193173,1021.1808552469137,-100.0,-100.0,-100.0,-100.0,-100.0,-87.0,-100.0,-100.0,-100.0,-57.0,-75.0,-100.0,-71.0,-100.0,-100.0,-100.0,-100.0,-100.0,-100.0,-64.0,-100.0,-100.0,-100.0,-62.0,-56.0,-100.0,-100.0,-100.0,-100.0,-48.0,-100.0,-100.0,-100.0,-100.0,-100.0,-70.0,-75.0,-100.0,-100.0,-56.0,-63.0,-100.0,-100.0,-100.0,-80.0,-100.0,-79.0,-72.0,-77.0,-37.0,-100.0,-48.0,-100.0,-100.0,-100.0,-100.0,-100.0,-69.0,-74.0,-100.0,-100.0,-56.0,-63.0,-100.0,-100.0,-100.0,-80.0,-100.0,-80.0,-100.0,-77.0,-38.0,-100.0,-100.0,-100.0,-100.0,-100.0,-100.0,-100.0,-100.0,-100.0,-100.0,-100.0,-78.0,-100.0,-100.0,-100.0,-100.0,-100.0,-100.0,-100.0,-100.0,-100.0,-100.0,-100.0,-71.0,-100.0,-100.0,-100.0,-58.0,-65.0,-100.0,-100.0,-55.0,-100.0,-100.0,-100.0,-100.0,-55.0,-100.0,-100.0,-100.0,-64.0,-78.0,-50.0,-100.0,-100.0,-67.0,-100.0,-100.0,-100.0,-57.0,-66.0,-57.0,-100.0,-100.0,-74.0,-100.0,-100.0,-100.0,-81.0,-66.0,-100.0,-80.0,-80.0,-67.0,-100.0,-70.0,-100.0,-100.0,-74.0,-100.0,-100.0,-87.0,-100.0,-89.0,-100.0,-100.0,-100.0,-100.0,-100.0,-100.0,-100.0,-100.0,-100.0,-100.0,-100.0,-100.0,-100.0,-100.0,-100.0,-100.0,-100.0,-100.0,-100.0
2021.01.10 213901,63.0,24.0,30.21951180487805,2.218170694695122,-25.810975256097556,-0.37433902505487804,0.9055760498170734,9.97011075304878,0.0022840696090853643,0.0009732870028658539,-0.0042363207079878056,-0.09056624104609573,0.03759094535745108,-1.4123134642112545,1021.1783862195122,-100.0,-100.0,-100.0,-100.0,-100.0,-100.0,-100.0,-100.0,-89.0,-61.0,-78.0,-100.0,-100.0,-100.0,-100.0,-100.0,-100.0,-100.0,-100.0,-75.0,-100.0,-100.0,-100.0,-61.0,-100.0,-100.0,-100.0,-100.0,-100.0,-45.0,-100.0,-100.0,-100.0,-100.0,-100.0,-66.0,-81.0,-100.0,-100.0,-53.0,-56.0,-100.0,-100.0,-72.0,-83.0,-100.0,-81.0,-74.0,-75.0,-42.0,-100.0,-46.0,-100.0,-100.0,-100.0,-100.0,-100.0,-68.0,-78.0,-100.0,-100.0,-53.0,-56.0,-100.0,-100.0,-72.0,-83.0,-100.0,-81.0,-74.0,-75.0,-41.0,-100.0,-100.0,-100.0,-100.0,-100.0,-100.0,-100.0,-100.0,-100.0,-100.0,-100.0,-81.0,-100.0,-100.0,-100.0,-100.0,-100.0,-100.0,-87.0,-100.0,-100.0,-100.0,-100.0,-66.0,-100.0,-100.0,-100.0,-61.0,-66.0,-100.0,-100.0,-62.0,-100.0,-100.0,-100.0,-100.0,-62.0,-100.0,-100.0,-100.0,-64.0,-79.0,-56.0,-100.0,-65.0,-67.0,-60.0,-100.0,-100.0,-100.0,-67.0,-100.0,-100.0,-100.0,-100.0,-100.0,-100.0,-100.0,-76.0,-70.0,-76.0,-86.0,-86.0,-67.0,-71.0,-73.0,-100.0,-100.0,-75.0,-70.0,-100.0,-84.0,-100.0,-100.0,-88.0,-89.0,-91.0,-100.0,-100.0,-100.0,-100.0,-100.0,-100.0,-100.0,-100.0,-100.0,-100.0,-100.0,-100.0,-100.0,-100.0,-100.0,-100.0
2021.01.10 213914,64.0,24.0,33.57091977300614,5.775828128834355,-25.503312625766867,-0.3442320875766871,0.8028605698773006,9.978808607361962,-0.00034090015368098167,0.0015533028533128836,-0.001272394689018404,-0.08022891739211926,0.03449315667163828,-1.3328141017925519,1021.1740980981593,-100.0,-100.0,-100.0,-85.0,-100.0,-87.0,-100.0,-100.0,-100.0,-100.0,-76.0,-100.0,-74.0,-100.0,-100.0,-100.0,-100.0,-100.0,-100.0,-69.0,-100.0,-100.0,-100.0,-66.0,-100.0,-100.0,-100.0,-100.0,-100.0,-44.0,-100.0,-81.0,-100.0,-100.0,-100.0,-66.0,-77.0,-100.0,-100.0,-54.0,-58.0,-100.0,-100.0,-73.0,-81.0,-73.0,-80.0,-72.0,-76.0,-44.0,-100.0,-41.0,-100.0,-100.0,-100.0,-100.0,-100.0,-67.0,-78.0,-100.0,-100.0,-55.0,-58.0,-100.0,-100.0,-73.0,-81.0,-73.0,-81.0,-70.0,-76.0,-44.0,-100.0,-100.0,-100.0,-100.0,-100.0,-100.0,-100.0,-100.0,-100.0,-100.0,-100.0,-81.0,-100.0,-100.0,-100.0,-100.0,-100.0,-100.0,-100.0,-100.0,-100.0,-100.0,-100.0,-73.0,-100.0,-100.0,-100.0,-66.0,-61.0,-100.0,-100.0,-61.0,-100.0,-100.0,-100.0,-100.0,-60.0,-100.0,-100.0,-100.0,-69.0,-81.0,-58.0,-100.0,-55.0,-74.0,-63.0,-100.0,-100.0,-60.0,-73.0,-60.0,-100.0,-100.0,-100.0,-100.0,-100.0,-100.0,-78.0,-78.0,-77.0,-81.0,-86.0,-75.0,-82.0,-78.0,-100.0,-100.0,-76.0,-75.0,-87.0,-85.0,-85.0,-100.0,-90.0,-88.0,-81.0,-88.0,-100.0,-100.0,-100.0,-100.0,-100.0,-100.0,-100.0,-100.0,-100.0,-100.0,-100.0,-100.0,-100.0,-100.0,-100.0
2021.01.10 213928,65.0,24.0,40.03409590963855,5.986626421686746,-26.7722886686747,-0.30863067608433736,1.0016722687349398,9.967914111445783,0.0022909359898795182,0.0008314759900602405,-0.006285133583795181,-0.100097940404372,0.03096142152593612,-1.3504823970507427,1021.1757903614457,-100.0,-100.0,-100.0,-100.0,-100.0,-88.0,-100.0,-100.0,-100.0,-57.0,-82.0,-100.0,-100.0,-100.0,-100.0,-100.0,-100.0,-100.0,-100.0,-71.0,-100.0,-100.0,-100.0,-63.0,-62.0,-100.0,-100.0,-100.0,-100.0,-47.0,-100.0,-100.0,-100.0,-100.0,-100.0,-100.0,-77.0,-100.0,-100.0,-53.0,-58.0,-100.0,-100.0,-100.0,-83.0,-72.0,-80.0,-65.0,-81.0,0.0,-53.0,-48.0,-100.0,-86.0,-100.0,-100.0,-100.0,-100.0,-78.0,-100.0,-100.0,-54.0,-58.0,-100.0,-100.0,-100.0,-84.0,-100.0,-80.0,-68.0,-81.0,0.0,-53.0,-100.0,-100.0,-100.0,-100.0,-100.0,-100.0,-100.0,-100.0,-100.0,-100.0,-84.0,-100.0,-100.0,-100.0,-100.0,-100.0,-100.0,-100.0,-100.0,-100.0,-100.0,-100.0,-85.0,-100.0,-100.0,-100.0,-100.0,-64.0,-100.0,-100.0,-61.0,-100.0,-100.0,-100.0,-100.0,-61.0,-100.0,-100.0,-100.0,-67.0,-84.0,-60.0,-100.0,-62.0,-74.0,-65.0,-100.0,-100.0,-63.0,-74.0,-61.0,-100.0,-100.0,-100.0,-100.0,-100.0,-100.0,-79.0,-100.0,-73.0,-91.0,-91.0,-71.0,-83.0,-78.0,-100.0,-100.0,-73.0,-74.0,-100.0,-86.0,-100.0,-100.0,-87.0,-100.0,-100.0,-100.0,-100.0,-100.0,-100.0,-100.0,-100.0,-100.0,-100.0,-100.0,-100.0,-100.0,-100.0,-100.0,-100.0,-100.0,-100.0
2021.01.10 213942,66.0,24.0,40.3390414251497,6.492215467664671,-30.132215173652693,-0.3744817845988023,0.9642332473652695,9.963036230538922,0.0017255077235329346,0.0013343016162275449,-0.008119646334371256,-0.09640000947935135,0.037586740658668655,-1.332426483045795,1021.1706731137725,-100.0,-100.0,-100.0,-100.0,-100.0,-100.0,-100.0,-100.0,-100.0,-49.0,-87.0,-100.0,-76.0,-100.0,-100.0,-100.0,-100.0,-100.0,-100.0,-100.0,-100.0,-100.0,-100.0,-68.0,-100.0,-100.0,-100.0,-100.0,-100.0,-54.0,-100.0,-100.0,-100.0,-100.0,-100.0,-69.0,-78.0,-83.0,-100.0,-56.0,-62.0,-100.0,-100.0,-100.0,-83.0,-100.0,-81.0,-69.0,-80.0,-50.0,-55.0,-54.0,-100.0,-100.0,-100.0,-100.0,-100.0,-68.0,-78.0,-82.0,-100.0,-56.0,-62.0,-100.0,-100.0,-100.0,-83.0,-100.0,-81.0,-70.0,-79.0,-49.0,-56.0,-100.0,-100.0,-100.0,-100.0,-100.0,-100.0,-100.0,-100.0,-100.0,-100.0,-83.0,-100.0,-100.0,-100.0,-100.0,-100.0,-100.0,-92.0,-100.0,-100.0,-100.0,-100.0,-79.0,-100.0,-100.0,-100.0,-100.0,-64.0,-100.0,-100.0,-71.0,-100.0,-100.0,-100.0,-100.0,-71.0,-100.0,-100.0,-100.0,-71.0,-87.0,-62.0,-100.0,-58.0,-74.0,-100.0,-100.0,-100.0,-100.0,-74.0,-63.0,-100.0,-100.0,-82.0,-100.0,-100.0,-100.0,-84.0,-100.0,-77.0,-86.0,-83.0,-77.0,-81.0,-80.0,-100.0,-81.0,-72.0,-72.0,-79.0,-89.0,-80.0,-100.0,-91.0,-100.0,-85.0,-100.0,-87.0,-100.0,-100.0,-100.0,-100.0,-100.0,-100.0,-100.0,-100.0,-100.0,-100.0,-100.0,-100.0,-100.0,-100.0
2021.01.10 213956,67.0,24.0,43.047406858024694,1.336666646728395,-32.26259212345679,-0.35933335394444443,0.8246059769753087,9.979780771604938,-0.0009092689390740735,0.002770198409197531,-0.004863188729691358,-0.08243678868920712,0.035959625196999565,-1.4723232160379858,1021.1651294444445,-100.0,-100.0,-100.0,-100.0,-100.0,-100.0,-100.0,-100.0,-100.0,-50.0,-83.0,-100.0,-76.0,-100.0,-100.0,-100.0,-100.0,-100.0,-100.0,-80.0,-100.0,-100.0,-100.0,-71.0,-64.0,-100.0,-100.0,-100.0,-100.0,-55.0,-100.0,-100.0,-100.0,-100.0,-100.0,-73.0,-78.0,-100.0,-100.0,-51.0,-57.0,-100.0,-100.0,-76.0,-83.0,-100.0,-77.0,-68.0,-77.0,-49.0,-58.0,-56.0,-100.0,-100.0,-100.0,-100.0,-100.0,-73.0,-78.0,-100.0,-100.0,-51.0,-57.0,-84.0,-100.0,-75.0,-83.0,-100.0,-77.0,-66.0,-77.0,-48.0,-59.0,-100.0,-100.0,-100.0,-100.0,-100.0,-100.0,-100.0,-100.0,-100.0,-100.0,-100.0,-100.0,-100.0,-100.0,-100.0,-100.0,-100.0,-100.0,-100.0,-100.0,-100.0,-100.0,-83.0,-100.0,-100.0,-100.0,-100.0,-64.0,-100.0,-100.0,-70.0,-100.0,-100.0,-100.0,-100.0,-71.0,-100.0,-100.0,-100.0,-69.0,-85.0,-65.0,-100.0,-57.0,-84.0,-60.0,-100.0,-100.0,-68.0,-84.0,-77.0,-100.0,-100.0,-79.0,-100.0,-100.0,-100.0,-85.0,-79.0,-80.0,-90.0,-88.0,-72.0,-83.0,-83.0,-100.0,-80.0,-68.0,-74.0,-100.0,-89.0,-82.0,-100.0,-90.0,-85.0,-84.0,-100.0,-89.0,-72.0,-89.0,-100.0,-100.0,-100.0,-100.0,-100.0,-100.0,-100.0,-100.0,-100.0,-100.0,-100.0,-100.0
2021.01.10 214010,68.0,24.0,43.95928511904762,-1.5674999682142858,-34.79928530357143,-0.39756363047619053,0.7042445800595238,9.98262950595238,0.004733827263333334,0.0012348203957738095,-0.005241747425833334,-0.07035754680345274,0.03984816768206652,-1.5469256717534292,1021.1682321428572,-100.0,-100.0,-100.0,-100.0,-100.0,-100.0,-100.0,-100.0,-100.0,-49.0,-100.0,-100.0,-80.0,-100.0,-100.0,-100.0,-100.0,-100.0,-100.0,-100.0,-100.0,-100.0,-100.0,-63.0,-76.0,-100.0,-100.0,-100.0,-100.0,-56.0,-100.0,-100.0,-100.0,-100.0,-100.0,-68.0,-76.0,-100.0,-100.0,-55.0,-57.0,-100.0,-100.0,-73.0,-82.0,-100.0,-76.0,-71.0,-77.0,-46.0,-58.0,-56.0,-100.0,-100.0,-100.0,-100.0,-100.0,-66.0,-77.0,-100.0,-100.0,-55.0,-57.0,-100.0,-100.0,-100.0,-84.0,-100.0,-76.0,-72.0,-76.0,-45.0,-58.0,-100.0,-100.0,-100.0,-100.0,-100.0,-100.0,-100.0,-100.0,-100.0,-100.0,-100.0,-100.0,-100.0,-100.0,-100.0,-100.0,-100.0,-100.0,-100.0,-100.0,-100.0,-100.0,-79.0,-100.0,-100.0,-100.0,-64.0,-64.0,-100.0,-100.0,-70.0,-100.0,-100.0,-100.0,-100.0,-69.0,-100.0,-100.0,-100.0,-72.0,-88.0,-65.0,-100.0,-65.0,-80.0,-66.0,-100.0,-100.0,-100.0,-81.0,-100.0,-100.0,-100.0,-80.0,-100.0,-100.0,-100.0,-83.0,-100.0,-78.0,-89.0,-89.0,-100.0,-100.0,-90.0,-100.0,-78.0,-69.0,-77.0,-84.0,-100.0,-83.0,-100.0,-100.0,-85.0,-83.0,-100.0,-83.0,-100.0,-100.0,-87.0,-100.0,-100.0,-100.0,-100.0,-100.0,-100.0,-100.0,-100.0,-100.0,-100.0,-100.0
2021.01.10 214025,69.0,24.0,38.457453987878786,-2.1385454249090907,-38.22836311515152,-0.3469957159393939,0.9598865378181818,9.96343361212121,0.002704022684545455,0.0023957949336363632,-0.004713454779454546,-0.09602377893346724,0.03485210454373645,-1.5256897030454692,1021.168495030303,-100.0,-100.0,-100.0,-100.0,-100.0,-100.0,-100.0,-100.0,-100.0,-59.0,-84.0,-100.0,-84.0,-100.0,-100.0,-100.0,-100.0,-100.0,-100.0,-100.0,-100.0,-100.0,-100.0,-100.0,-100.0,-100.0,-100.0,-100.0,-100.0,-58.0,-100.0,-100.0,-100.0,-100.0,-100.0,-65.0,-79.0,-100.0,-100.0,-48.0,-56.0,-100.0,-100.0,-75.0,-84.0,-77.0,-77.0,-74.0,-80.0,-48.0,-62.0,-57.0,-100.0,-100.0,-100.0,-100.0,-100.0,-57.0,-79.0,-100.0,-100.0,-48.0,-56.0,-100.0,-100.0,-76.0,-82.0,-100.0,-77.0,-75.0,-79.0,-50.0,-62.0,-100.0,-100.0,-100.0,-100.0,-100.0,-100.0,-100.0,-100.0,-100.0,-100.0,-86.0,-100.0,-100.0,-100.0,-100.0,-100.0,-100.0,-100.0,-100.0,-100.0,-100.0,-100.0,-100.0,-100.0,-100.0,-100.0,-62.0,-63.0,-100.0,-100.0,-72.0,-100.0,-100.0,-100.0,-100.0,-72.0,-100.0,-100.0,-100.0,-70.0,-84.0,-67.0,-100.0,-59.0,-77.0,-100.0,-100.0,-100.0,-100.0,-76.0,-100.0,-100.0,-100.0,-79.0,-100.0,-100.0,-100.0,-81.0,-100.0,-80.0,-100.0,-100.0,-85.0,-100.0,-86.0,-100.0,-80.0,-73.0,-69.0,-82.0,-100.0,-81.0,-100.0,-90.0,-85.0,-84.0,-100.0,-85.0,-100.0,-100.0,-100.0,-100.0,-100.0,-100.0,-100.0,-100.0,-100.0,-100.0,-100.0,-100.0,-100.0,-100.0
2021.01.10 214040,70.0,24.0,30.94366820118343,-2.938224807100591,-32.898816100591716,-0.38231893502958586,0.9953382880473371,9.962988325443787,0.0019268208628994085,0.0012811001933136096,-0.0023147708981656806,-0.09950532248386966,0.03839685584930974,-1.554546043012269,1021.1594394674556,-100.0,-100.0,-100.0,-100.0,-100.0,-100.0,-100.0,-100.0,-100.0,-54.0,-88.0,-100.0,-77.0,-100.0,-100.0,-100.0,-100.0,-100.0,-100.0,-81.0,-100.0,-100.0,-100.0,-69.0,-66.0,-100.0,-100.0,-100.0,-100.0,-59.0,-100.0,-83.0,-100.0,-100.0,-100.0,-65.0,-77.0,-86.0,-100.0,-48.0,-59.0,-84.0,-100.0,-100.0,-82.0,-70.0,-78.0,-75.0,-75.0,-49.0,-61.0,-59.0,-100.0,-100.0,-100.0,-100.0,-100.0,-65.0,-77.0,-100.0,-100.0,-49.0,-59.0,-100.0,-100.0,-100.0,-82.0,-70.0,-78.0,-74.0,-75.0,-49.0,-61.0,-100.0,-100.0,-100.0,-100.0,-100.0,-100.0,-100.0,-100.0,-100.0,-100.0,-85.0,-100.0,-100.0,-100.0,-100.0,-100.0,-100.0,-100.0,-100.0,-100.0,-100.0,-100.0,-83.0,-100.0,-100.0,-100.0,-67.0,-65.0,-100.0,-100.0,-83.0,-100.0,-100.0,-100.0,-100.0,-82.0,-100.0,-100.0,-100.0,-71.0,-89.0,-71.0,-100.0,-62.0,-82.0,-100.0,-100.0,-100.0,-61.0,-82.0,-61.0,-100.0,-100.0,-74.0,-100.0,-100.0,-100.0,-87.0,-79.0,-87.0,-100.0,-100.0,-86.0,-85.0,-100.0,-100.0,-74.0,-71.0,-77.0,-100.0,-100.0,-100.0,-100.0,-100.0,-83.0,-83.0,-100.0,-86.0,-100.0,-100.0,-100.0,-88.0,-87.0,-100.0,-100.0,-100.0,-100.0,-100.0,-100.0,-100.0,-100.0,-100.0
2021.01.10 214055,71.0,24.0,30.90987762195122,-2.145365820487805,-32.681341079268286,-0.3551410293902439,0.8431059164634146,9.975322582317073,-0.0004648235742073172,-0.0016750372055487808,-0.00232922920304878,-0.08427418523081914,0.03559987896076604,-1.5461691174565293,1021.1589214634145,-100.0,-100.0,-100.0,-100.0,-100.0,-100.0,-100.0,-100.0,-100.0,-71.0,-83.0,-100.0,-82.0,-100.0,-100.0,-100.0,-100.0,-100.0,-100.0,-71.0,-100.0,-100.0,-100.0,-73.0,-80.0,-100.0,-100.0,-100.0,-100.0,-58.0,-100.0,-88.0,-100.0,-100.0,-100.0,-71.0,-81.0,-100.0,-100.0,-49.0,-57.0,-89.0,-100.0,-80.0,-82.0,-73.0,-78.0,-76.0,-79.0,-58.0,-63.0,-58.0,-100.0,-89.0,-100.0,-100.0,-100.0,-70.0,-81.0,-100.0,-100.0,-49.0,-57.0,-86.0,-100.0,-100.0,-82.0,-73.0,-78.0,-100.0,-79.0,-57.0,-63.0,-100.0,-100.0,-100.0,-100.0,-100.0,-100.0,-100.0,-100.0,-100.0,-100.0,-85.0,-100.0,-100.0,-100.0,-100.0,-100.0,-100.0,-100.0,-100.0,-100.0,-100.0,-100.0,-86.0,-100.0,-100.0,-100.0,-73.0,-71.0,-100.0,-100.0,-79.0,-100.0,-100.0,-100.0,-100.0,-79.0,-100.0,-100.0,-100.0,-80.0,-90.0,-71.0,-100.0,-73.0,-85.0,-73.0,-100.0,-100.0,-74.0,-100.0,-74.0,-100.0,-100.0,-75.0,-100.0,-100.0,-100.0,-100.0,-100.0,-85.0,-100.0,-100.0,-87.0,-100.0,-100.0,-100.0,-74.0,-81.0,-65.0,-74.0,-100.0,-75.0,-84.0,-100.0,-83.0,-83.0,-100.0,-100.0,-100.0,-86.0,-100.0,-89.0,-90.0,-81.0,-100.0,-100.0,-100.0,-100.0,-100.0,-100.0,-100.0,-100.0
2021.01.10 214112,72.0,24.0,31.250823076470592,3.136941122352941,-33.1295289117647,-0.10277072477764707,0.5719359142352941,9.995280411764705,0.0053225767034117645,0.004165562063470588,-0.007036485018882354,-0.05714773992624349,0.010314701961760838,-1.4085675905732546,1021.1533810000001,-100.0,-100.0,-100.0,-100.0,-100.0,-100.0,-100.0,-100.0,-100.0,-63.0,-100.0,-100.0,-100.0,-100.0,-100.0,-100.0,-100.0,-100.0,-100.0,-100.0,-100.0,-100.0,-100.0,-72.0,-76.0,-100.0,-100.0,-100.0,-100.0,-60.0,-100.0,-88.0,-100.0,-100.0,-100.0,-63.0,-81.0,-100.0,-100.0,-48.0,-57.0,-100.0,-100.0,-79.0,-82.0,-70.0,-82.0,-74.0,-78.0,-58.0,-64.0,-59.0,-100.0,-100.0,-100.0,-100.0,-100.0,-72.0,-81.0,-100.0,-100.0,-47.0,-57.0,-100.0,-100.0,-79.0,-82.0,-68.0,-82.0,-74.0,-78.0,-58.0,-64.0,-100.0,-100.0,-100.0,-100.0,-100.0,-100.0,-100.0,-100.0,-100.0,-100.0,-100.0,-100.0,-100.0,-100.0,-100.0,-100.0,-100.0,-100.0,-100.0,-100.0,-100.0,-100.0,-100.0,-100.0,-100.0,-100.0,-74.0,-78.0,-100.0,-100.0,-83.0,-100.0,-100.0,-100.0,-100.0,-84.0,-100.0,-100.0,-100.0,-83.0,-100.0,-72.0,-100.0,-74.0,-87.0,-75.0,-100.0,-100.0,-84.0,-87.0,-85.0,-100.0,-100.0,-76.0,-100.0,-100.0,-100.0,-89.0,-84.0,-100.0,-100.0,-100.0,-100.0,-100.0,-100.0,-100.0,-76.0,-79.0,-70.0,-100.0,-100.0,-100.0,-84.0,-100.0,-82.0,-83.0,-100.0,-85.0,-74.0,-90.0,-100.0,-100.0,-83.0,-84.0,-100.0,-100.0,-100.0,-100.0,-100.0,-100.0,-100.0,-100.0
2021.01.10 214125,73.0,24.0,33.88078603932584,4.268089809550562,-32.59381989325843,-0.3919481671685393,0.890979601235955,9.970863255617978,0.002215642601516854,0.0005279865858426964,-0.010956842689775282,-0.08905712745330303,0.03931660519054762,-1.3501236766911624,1021.1520900561796,-100.0,-100.0,-100.0,-100.0,-100.0,-100.0,-100.0,-100.0,-100.0,-71.0,-85.0,-100.0,-82.0,-100.0,-100.0,-100.0,-100.0,-100.0,-100.0,-86.0,-100.0,-100.0,-100.0,-78.0,-82.0,-100.0,-100.0,-100.0,-100.0,-62.0,-100.0,-90.0,-100.0,-100.0,-100.0,-70.0,-78.0,-100.0,-100.0,-46.0,-51.0,-100.0,-100.0,-78.0,-88.0,-72.0,-81.0,-78.0,-81.0,-55.0,-67.0,-64.0,-100.0,-100.0,-100.0,-100.0,-100.0,-70.0,-78.0,-100.0,-100.0,-45.0,-51.0,-100.0,-100.0,-77.0,-87.0,-71.0,-81.0,-77.0,-84.0,-54.0,-67.0,-100.0,-100.0,-100.0,-100.0,-100.0,-100.0,-100.0,-100.0,-100.0,-100.0,-100.0,-100.0,-100.0,-100.0,-100.0,-100.0,-100.0,-100.0,-100.0,-100.0,-100.0,-100.0,-100.0,-100.0,-100.0,-100.0,-77.0,-77.0,-100.0,-100.0,-82.0,-100.0,-100.0,-100.0,-100.0,-80.0,-100.0,-100.0,-100.0,-83.0,-100.0,-72.0,-100.0,-74.0,-88.0,-70.0,-100.0,-100.0,-83.0,-88.0,-82.0,-100.0,-100.0,-66.0,-100.0,-100.0,-100.0,-100.0,-100.0,-100.0,-100.0,-100.0,-81.0,-100.0,-100.0,-100.0,-67.0,-84.0,-71.0,-77.0,-100.0,-76.0,-78.0,-100.0,-79.0,-79.0,-100.0,-86.0,-73.0,-100.0,-100.0,-100.0,-100.0,-77.0,-100.0,-100.0,-100.0,-100.0,-100.0,-100.0,-100.0,-100.0
2021.01.10 214141,74.0,24.0,35.92353606097561,6.458780379878051,-30.245853298780485,-0.32474541908536586,0.960688168719512,9.965132310975608,0.002358565860060976,0.0015655284132317074,-0.006411596936219512,-0.09605330753526305,0.03259773601823278,-1.3063261668856552,1021.1478933536586,-100.0,-100.0,-100.0,-100.0,-100.0,-100.0,-100.0,-100.0,-100.0,-71.0,-88.0,-100.0,-100.0,-100.0,-100.0,-100.0,-100.0,-100.0,-100.0,-100.0,-100.0,-100.0,-100.0,-77.0,-100.0,-100.0,-100.0,-100.0,-100.0,-60.0,-100.0,-100.0,-100.0,-100.0,-100.0,-76.0,-78.0,-100.0,-100.0,-44.0,-46.0,-100.0,-100.0,-80.0,-83.0,-68.0,-82.0,-76.0,-83.0,-56.0,-64.0,-60.0,-100.0,-100.0,-100.0,-100.0,-100.0,-77.0,-78.0,-100.0,-100.0,-44.0,-47.0,-100.0,-100.0,-100.0,-84.0,-68.0,-82.0,-76.0,-83.0,-56.0,-64.0,-100.0,-100.0,-100.0,-100.0,-100.0,-100.0,-100.0,-100.0,-100.0,-100.0,-86.0,-100.0,-100.0,-100.0,-100.0,-100.0,-100.0,-100.0,-100.0,-100.0,-100.0,-100.0,-100.0,-100.0,-100.0,-100.0,-100.0,-79.0,-100.0,-100.0,-87.0,-100.0,-100.0,-100.0,-100.0,-87.0,-100.0,-100.0,-100.0,-100.0,-90.0,-78.0,-100.0,-100.0,-88.0,-100.0,-100.0,-100.0,-81.0,-100.0,-81.0,-100.0,-100.0,-71.0,-100.0,-100.0,-100.0,-100.0,-100.0,-100.0,-100.0,-100.0,-100.0,-100.0,-100.0,-100.0,-72.0,-82.0,-65.0,-100.0,-100.0,-100.0,-100.0,-100.0,-79.0,-80.0,-100.0,-83.0,-74.0,-100.0,-100.0,-100.0,-100.0,-100.0,-89.0,-88.0,-100.0,-100.0,-100.0,-100.0,-100.0,-100.0
2021.01.10 214159,75.0,24.0,46.26937425,9.637499816875001,-25.404374675000003,-0.4538198245,0.60717312925,9.987837034375,0.003968791553375,0.0015347990025625,-0.005227021184875,-0.060677480872254774,0.04545568308094512,-1.3250132381916047,1021.1437576874999,-100.0,-100.0,-100.0,-100.0,-100.0,-100.0,-100.0,-100.0,-100.0,-100.0,-90.0,-100.0,-100.0,-100.0,-100.0,-100.0,-100.0,-100.0,-100.0,-100.0,-100.0,-100.0,-100.0,-76.0,-88.0,-100.0,-100.0,-100.0,-100.0,-64.0,-100.0,-100.0,-100.0,-100.0,-100.0,-71.0,-80.0,-100.0,-100.0,-45.0,-50.0,-84.0,-100.0,-100.0,-86.0,-70.0,-77.0,-74.0,-79.0,-51.0,-68.0,-64.0,-100.0,-100.0,-100.0,-100.0,-100.0,-71.0,-79.0,-87.0,-100.0,-46.0,-50.0,-81.0,-100.0,-100.0,-85.0,-70.0,-78.0,-67.0,-79.0,-53.0,-68.0,-100.0,-100.0,-100.0,-100.0,-100.0,-100.0,-100.0,-100.0,-100.0,-100.0,-100.0,-100.0,-100.0,-100.0,-100.0,-100.0,-100.0,-100.0,-100.0,-100.0,-100.0,-100.0,-100.0,-100.0,-100.0,-100.0,-100.0,-85.0,-100.0,-100.0,-84.0,-100.0,-100.0,-100.0,-100.0,-85.0,-100.0,-100.0,-100.0,-100.0,-100.0,-78.0,-100.0,-78.0,-91.0,-100.0,-100.0,-100.0,-86.0,-89.0,-86.0,-100.0,-100.0,-81.0,-100.0,-100.0,-100.0,-100.0,-100.0,-100.0,-100.0,-100.0,-100.0,-100.0,-100.0,-100.0,-78.0,-89.0,-63.0,-74.0,-100.0,-74.0,-85.0,-100.0,-79.0,-78.0,-100.0,-84.0,-72.0,-100.0,-100.0,-85.0,-85.0,-86.0,-100.0,-100.0,-100.0,-100.0,-100.0,-100.0,-100.0,-100.0
2021.01.10 214213,76.0,24.0,41.03552746583851,5.850931577018634,-26.885217037267076,-0.316133501863354,0.5746705689763976,9.995086090062111,0.0020439017263975162,0.00045463924204968944,-0.0006180476895031058,-0.0573753371204051,0.031588527668984734,-1.3868527101433796,1021.1384213664594,-100.0,-100.0,-100.0,-100.0,-100.0,-100.0,-100.0,-100.0,-100.0,-100.0,-100.0,-100.0,-100.0,-100.0,-100.0,-100.0,-100.0,-100.0,-100.0,-86.0,-100.0,-100.0,-100.0,-100.0,-100.0,-100.0,-100.0,-100.0,-100.0,-71.0,-100.0,-100.0,-100.0,-100.0,-100.0,-72.0,-80.0,-100.0,-100.0,-41.0,-47.0,-84.0,-100.0,-81.0,-87.0,-72.0,-80.0,-76.0,-83.0,-59.0,-67.0,-70.0,-100.0,-100.0,-100.0,-100.0,-100.0,-72.0,-80.0,-100.0,-100.0,-42.0,-47.0,-83.0,-100.0,-100.0,-87.0,-72.0,-81.0,-75.0,-84.0,-59.0,-67.0,-100.0,-100.0,-100.0,-100.0,-100.0,-100.0,-100.0,-100.0,-100.0,-100.0,-88.0,-100.0,-100.0,-100.0,-100.0,-100.0,-100.0,-100.0,-100.0,-100.0,-100.0,-100.0,-100.0,-100.0,-100.0,-100.0,-100.0,-87.0,-100.0,-100.0,-87.0,-100.0,-100.0,-100.0,-100.0,-87.0,-100.0,-100.0,-100.0,-100.0,-100.0,-77.0,-100.0,-100.0,-100.0,-77.0,-100.0,-100.0,-100.0,-100.0,-100.0,-100.0,-100.0,-70.0,-100.0,-100.0,-100.0,-100.0,-100.0,-100.0,-100.0,-100.0,-87.0,-100.0,-100.0,-100.0,-70.0,-88.0,-60.0,-100.0,-100.0,-100.0,-75.0,-100.0,-72.0,-72.0,-100.0,-79.0,-72.0,-90.0,-78.0,-81.0,-100.0,-75.0,-100.0,-100.0,-79.0,-100.0,-100.0,-100.0,-100.0,-100.0
2021.01.10 214226,77.0,24.0,36.67662605421687,5.451686662048193,-30.980963283132525,-0.3385158408795181,0.6492667475903615,9.983909599397592,0.0007232941031927713,-1.8583699156627234e-05,-0.00812508901512048,-0.06492086809622231,0.03394659836383824,-1.3617185727659478,1021.1328881325303,-100.0,-100.0,-100.0,-100.0,-100.0,-100.0,-100.0,-100.0,-100.0,-100.0,-100.0,-100.0,-100.0,-100.0,-100.0,-100.0,-100.0,-100.0,-100.0,-100.0,-100.0,-100.0,-100.0,-79.0,-100.0,-100.0,-100.0,-100.0,-100.0,-74.0,-100.0,-100.0,-100.0,-100.0,-100.0,-76.0,-81.0,-100.0,-100.0,-36.0,-45.0,-100.0,-100.0,-82.0,-87.0,-74.0,-82.0,-100.0,-81.0,-59.0,-68.0,-74.0,-100.0,-100.0,-100.0,-100.0,-100.0,-76.0,-81.0,-100.0,-100.0,-37.0,-45.0,-100.0,-100.0,-83.0,-89.0,-75.0,-83.0,-100.0,-81.0,-60.0,-69.0,-100.0,-100.0,-100.0,-100.0,-100.0,-100.0,-100.0,-100.0,-100.0,-100.0,-100.0,-100.0,-100.0,-100.0,-100.0,-100.0,-100.0,-100.0,-100.0,-100.0,-100.0,-100.0,-100.0,-100.0,-100.0,-100.0,-100.0,-89.0,-100.0,-100.0,-100.0,-100.0,-100.0,-100.0,-100.0,-100.0,-100.0,-100.0,-100.0,-100.0,-100.0,-100.0,-100.0,-79.0,-100.0,-100.0,-100.0,-100.0,-100.0,-100.0,-100.0,-100.0,-100.0,-100.0,-100.0,-100.0,-100.0,-100.0,-100.0,-100.0,-100.0,-100.0,-100.0,-100.0,-100.0,-100.0,-74.0,-100.0,-64.0,-100.0,-100.0,-100.0,-100.0,-100.0,-63.0,-63.0,-100.0,-75.0,-100.0,-100.0,-80.0,-82.0,-81.0,-100.0,-90.0,-89.0,-80.0,-82.0,-82.0,-100.0,-100.0,-100.0
2021.01.10 214239,78.0,24.0,37.95165592024539,6.3761962073619625,-34.781226631901845,-0.287107334601227,0.7313260990797547,9.987093058282207,-0.0004008625209815959,-0.0017483674652760727,-0.005694609519263804,-0.07306349330061779,0.028787061834902067,-1.3319266873634665,1021.1261130061348,-100.0,-100.0,-100.0,-100.0,-100.0,-100.0,-100.0,-100.0,-100.0,-79.0,-100.0,-100.0,-100.0,-100.0,-100.0,-100.0,-100.0,-100.0,-100.0,-100.0,-100.0,-100.0,-100.0,-100.0,-100.0,-100.0,-100.0,-100.0,-100.0,-77.0,-100.0,-88.0,-100.0,-100.0,-100.0,-74.0,-79.0,-100.0,-100.0,-36.0,-41.0,-100.0,-100.0,-82.0,-91.0,-68.0,-82.0,-76.0,-86.0,-61.0,-72.0,-78.0,-100.0,-100.0,-100.0,-100.0,-100.0,-74.0,-80.0,-100.0,-100.0,-37.0,-42.0,-100.0,-100.0,-82.0,-90.0,-68.0,-83.0,-76.0,-86.0,-61.0,-72.0,-100.0,-100.0,-100.0,-100.0,-100.0,-100.0,-100.0,-100.0,-100.0,-100.0,-100.0,-100.0,-100.0,-100.0,-100.0,-100.0,-100.0,-100.0,-100.0,-100.0,-100.0,-100.0,-100.0,-100.0,-100.0,-100.0,-100.0,-90.0,-100.0,-100.0,-87.0,-100.0,-100.0,-100.0,-100.0,-88.0,-100.0,-100.0,-100.0,-100.0,-100.0,-100.0,-100.0,-100.0,-100.0,-100.0,-100.0,-100.0,-100.0,-100.0,-100.0,-100.0,-100.0,-64.0,-100.0,-100.0,-100.0,-100.0,-100.0,-100.0,-100.0,-100.0,-100.0,-100.0,-100.0,-100.0,-63.0,-100.0,-63.0,-64.0,-100.0,-64.0,-79.0,-100.0,-66.0,-66.0,-100.0,-72.0,-78.0,-100.0,-75.0,-100.0,-100.0,-79.0,-89.0,-100.0,-74.0,-100.0,-100.0,-100.0,-100.0,-100.0
2021.01.10 214253,79.0,24.0,40.509642273809526,7.144642717261904,-34.486070880952376,-0.38248540057738095,0.6262168770238096,9.992534389880953,-0.00031308295839285705,6.763152744047609e-05,-0.007594305860773809,-0.06254711458902978,0.03830219224549915,-1.3349540588401614,1021.1250238095239,-100.0,-100.0,-100.0,-100.0,-100.0,-100.0,-100.0,-100.0,-100.0,-78.0,-100.0,-100.0,-100.0,-100.0,-100.0,-100.0,-100.0,-100.0,-100.0,-100.0,-100.0,-100.0,-100.0,-100.0,-100.0,-100.0,-100.0,-100.0,-100.0,-72.0,-100.0,-100.0,-100.0,-100.0,-100.0,-79.0,-81.0,-100.0,-100.0,-35.0,-42.0,-100.0,-100.0,-79.0,-88.0,-82.0,-82.0,-74.0,-83.0,-61.0,-74.0,-71.0,-100.0,-100.0,-100.0,-100.0,-100.0,-79.0,-80.0,-100.0,-100.0,-35.0,-42.0,-100.0,-100.0,-79.0,-90.0,-73.0,-82.0,-74.0,-83.0,-61.0,-74.0,-100.0,-100.0,-100.0,-100.0,-100.0,-100.0,-100.0,-100.0,-100.0,-100.0,-90.0,-100.0,-100.0,-100.0,-100.0,-100.0,-100.0,-100.0,-100.0,-100.0,-100.0,-100.0,-100.0,-100.0,-100.0,-100.0,-100.0,-100.0,-100.0,-100.0,-89.0,-100.0,-100.0,-100.0,-100.0,-100.0,-100.0,-100.0,-100.0,-100.0,-100.0,-78.0,-100.0,-100.0,-100.0,-78.0,-100.0,-100.0,-100.0,-100.0,-100.0,-100.0,-100.0,-70.0,-100.0,-100.0,-100.0,-100.0,-100.0,-100.0,-100.0,-100.0,-100.0,-100.0,-100.0,-100.0,-71.0,-87.0,-63.0,-59.0,-100.0,-59.0,-100.0,-100.0,-58.0,-58.0,-100.0,-76.0,-100.0,-100.0,-100.0,-100.0,-80.0,-100.0,-86.0,-85.0,-100.0,-100.0,-100.0,-100.0,-100.0,-100.0
2021.01.10 214308,80.0,24.0,42.54223541614907,8.681738943478262,-32.05416111180124,-0.3633795340496894,0.7148620475155278,9.983516220496895,0.001562039501552795,-0.001510753185341615,-0.00845305842341615,-0.07142885443494182,0.0363885467634854,-1.3092326725491825,1021.1219613664597,-100.0,-100.0,-100.0,-100.0,-100.0,-100.0,-100.0,-100.0,-100.0,-100.0,-100.0,-100.0,-100.0,-100.0,-100.0,-100.0,-100.0,-100.0,-100.0,-100.0,-100.0,-100.0,-100.0,-100.0,-100.0,-100.0,-100.0,-100.0,-100.0,-100.0,-100.0,-100.0,-100.0,-100.0,-100.0,-100.0,-78.0,-100.0,-100.0,-39.0,-33.0,-100.0,-100.0,-100.0,-90.0,-100.0,-82.0,-74.0,-83.0,-100.0,-74.0,-100.0,-100.0,-87.0,-100.0,-100.0,-100.0,-100.0,-79.0,-100.0,-100.0,-39.0,-33.0,-100.0,-100.0,-100.0,-88.0,-100.0,-82.0,-73.0,-84.0,-100.0,-74.0,-100.0,-100.0,-100.0,-100.0,-100.0,-100.0,-100.0,-100.0,-100.0,-100.0,-100.0,-100.0,-100.0,-100.0,-100.0,-100.0,-100.0,-100.0,-100.0,-100.0,-100.0,-100.0,-100.0,-100.0,-100.0,-100.0,-100.0,-90.0,-100.0,-100.0,-100.0,-100.0,-100.0,-100.0,-100.0,-100.0,-100.0,-100.0,-100.0,-100.0,-100.0,-100.0,-100.0,-100.0,-100.0,-100.0,-100.0,-100.0,-100.0,-100.0,-100.0,-100.0,-100.0,-73.0,-100.0,-100.0,-100.0,-100.0,-100.0,-100.0,-100.0,-100.0,-100.0,-100.0,-100.0,-100.0,-74.0,-100.0,-60.0,-64.0,-100.0,-65.0,-100.0,-100.0,-62.0,-62.0,-100.0,-74.0,-100.0,-100.0,-72.0,-100.0,-100.0,-100.0,-88.0,-85.0,-100.0,-100.0,-100.0,-100.0,-100.0,-100.0
2021.01.10 214323,81.0,24.0,42.37097093714286,13.11565686,-27.068571108571422,-0.32340495997142854,0.7093210134857143,9.988722974285714,0.0016758650866285712,-0.0001767144027428572,-0.008797419517999998,-0.07084759041666981,0.03237949333552799,-1.2208502333504814,1021.1199878285715,-100.0,-100.0,-100.0,-100.0,-100.0,-100.0,-100.0,-100.0,-100.0,-77.0,-100.0,-100.0,-83.0,-100.0,-100.0,-100.0,-100.0,-100.0,-100.0,-100.0,-100.0,-100.0,-100.0,-100.0,-100.0,-100.0,-100.0,-100.0,-100.0,-74.0,-100.0,-88.0,-100.0,-100.0,-100.0,-68.0,-80.0,-100.0,-100.0,-32.0,-35.0,-85.0,-100.0,-82.0,-90.0,-72.0,-82.0,-75.0,-86.0,-58.0,-76.0,-74.0,-100.0,-100.0,-100.0,-100.0,-100.0,-70.0,-79.0,-100.0,-100.0,-32.0,-35.0,-90.0,-100.0,-100.0,-100.0,-72.0,-82.0,-75.0,-85.0,-58.0,-76.0,-100.0,-100.0,-100.0,-100.0,-100.0,-100.0,-100.0,-100.0,-100.0,-100.0,-100.0,-100.0,-100.0,-100.0,-100.0,-100.0,-100.0,-100.0,-100.0,-100.0,-100.0,-100.0,-100.0,-100.0,-100.0,-100.0,-100.0,-92.0,-100.0,-100.0,-88.0,-100.0,-100.0,-100.0,-100.0,-89.0,-100.0,-100.0,-100.0,-100.0,-100.0,-82.0,-100.0,-100.0,-100.0,-100.0,-100.0,-100.0,-100.0,-100.0,-100.0,-100.0,-100.0,-77.0,-100.0,-100.0,-100.0,-100.0,-100.0,-100.0,-100.0,-100.0,-100.0,-100.0,-100.0,-100.0,-77.0,-100.0,-71.0,-73.0,-100.0,-73.0,-77.0,-100.0,-80.0,-80.0,-100.0,-86.0,-83.0,-100.0,-100.0,-90.0,-100.0,-82.0,-88.0,-90.0,-100.0,-83.0,-83.0,-100.0,-100.0,-100.0
