Timestamp,True_X,True_Y,Mean_Mag_x,Mean_Mag_y,Mean_Mag_z,Mean_Acc_x,Mean_Acc_y,Mean_Acc_z,Mean_Gyro_x,Mean_Gyro_y,Mean_Gyro_z,Mean_Orn_x,Mean_Orn_y,Mean_Orn_z,Mean_Pressure,00:1a:ab:a0:de:a8,00:1a:ab:a0:de:a9,00:1a:ac:a0:de:c1,00:1a:ac:a0:de:c2,00:1a:ac:a0:de:f9,00:1a:ac:a0:de:g5,00:1a:ac:a0:de:j1,00:1a:ac:a0:de:j5,00:1a:ac:a0:de:j7,00:1a:ac:a0:de:k3,00:1a:ac:a0:de:k4,00:1a:ac:a0:de:n6,00:1a:ac:a0:de:n7,00:1a:ac:a0:de:s6,00:1a:ac:a0:de:s7,00:1a:ac:a0:de:t3,00:1a:ac:a0:de:t4,00:1a:ac:a0:de:x3,00:1a:ac:a0:de:x4,00:1a:ab:a0:de:a1,00:1a:ab:a0:de:a7,00:1a:ac:a0:de:g8,00:1a:ac:a0:de:h2,00:1a:ac:a0:de:h3,00:1a:ac:a0:de:i6,00:1a:ac:a0:de:j8,00:1a:ac:a0:de:l7,00:1a:ac:a0:de:l8,00:1a:ac:a0:de:l9,00:1a:ac:a0:de:n4,00:1a:ac:a0:de:p1,00:1a:ac:a0:de:p2,00:1a:ac:a0:de:p5,00:1a:ac:a0:de:p6,00:1a:ac:a0:de:r1,00:1a:ac:a0:de:r2,00:1a:ac:a0:de:r3,00:1a:ac:a0:de:r4,00:1a:ac:a0:de:r7,00:1a:ac:a0:de:r9,00:1a:ac:a0:de:s1,00:1a:ac:a0:de:s2,00:1a:ac:a0:de:s3,00:1a:ac:a0:de:s4,00:1a:ac:a0:de:s5,00:1a:ac:a0:de:t1,00:1a:ac:a0:de:t7,00:1a:ac:a0:de:t8,00:1a:ac:a0:de:u2,00:1a:ac:a0:de:u3,00:1a:ac:a0:de:v7,00:1a:ac:a0:de:v8,00:1a:ac:a0:de:v9,00:1a:ac:a0:de:w1,00:1a:ac:a0:de:w4,00:1a:ac:a0:de:w6,00:1a:ac:a0:de:w7,00:1a:ac:a0:de:w8,00:1a:ac:a0:de:w9,00:1a:ac:a0:de:x1,00:1a:ac:a0:de:x2,00:1a:ac:a0:de:b4,00:1a:ac:a0:de:m6,00:1a:ac:a0:de:n8,00:1a:ac:a0:de:p7,00:1a:ac:a0:de:q4,00:1a:ac:a0:de:u4,00:1a:ac:a0:de:v1,00:1a:ac:a0:de:w3,00:1a:ac:a0:de:b1,00:1a:ac:a0:de:b3,00:1a:ac:a0:de:r6,00:1a:ac:a0:de:t5,00:1a:ac:a0:de:f6,00:1a:ac:a0:de:k2,00:1a:ac:a0:de:b2,00:1a:ac:a0:de:g1,00:1a:ac:a0:de:g9,00:1a:ac:a0:de:h5,00:1a:ac:a0:de:i2,00:1a:ac:a0:de:i7,00:1a:ac:a0:de:j2,00:1a:cs:a0:de:10,00:1a:ac:a0:de:d7,00:1a:ac:a0:de:d9,00:1a:ac:a0:de:e8,00:1a:ac:a0:de:j4,00:1a:ac:a0:de:g7,00:1a:ac:a0:de:k1,00:1a:ac:a0:de:m4,00:1a:ac:a0:de:e1,00:1a:ac:a0:de:s8,00:1a:ac:a0:de:x5,00:1a:ac:a0:de:f3,00:1a:ac:a0:de:p8,00:1a:ac:a0:de:u5,00:1a:ac:a0:de:f2,00:1a:ac:a0:de:r5,00:1a:ac:a0:de:w2,00:1a:ac:a0:de:d4,00:1a:ac:a0:de:m8,00:1a:ac:a0:de:l1,00:1a:ac:a0:de:k9,00:1a:ac:a0:de:g2,00:1a:ac:a0:de:p9,00:1a:ac:a0:de:u6,90:9f:33:17:06:00,00:1a:ac:a0:de:f4,00:1a:ac:a0:de:e4,00:1a:ac:a0:de:r8,00:1a:ac:a0:de:w5,00:1a:ac:a0:de:n5,00:1a:ac:a0:de:t2,00:1a:ac:a0:de:q2,00:1a:ac:a0:de:u8,00:1a:ac:a0:de:i9,00:1a:ab:a0:de:a3,00:1a:ac:a0:de:p3,00:1a:ac:a0:de:p4,00:1a:ac:a0:de:u1,00:1a:ac:a0:de:d2,00:1a:ac:a0:de:n9,00:1a:ac:a0:de:q3,00:1a:ac:a0:de:t6,00:1a:ac:a0:de:u9
2021.02.11 122655,46.0,24.0,23.499291867256638,6.453451238053098,-32.38407024778761,-0.27034116955752213,0.40882772194690264,9.97509974778761,-0.0031486590373451325,-0.0009509498162123894,0.00045175918115044266,-0.04097363321456757,0.027088920610536475,-1.238073347944074,1018.3515774336284,-59.0,-59.0,-89.0,-67.0,-87.0,-80.0,-77.0,-56.0,-85.0,-78.0,-66.0,-60.0,-85.0,-54.0,-64.0,-60.0,-84.0,-54.0,-64.0,-100.0,-100.0,-100.0,-100.0,-100.0,-100.0,-100.0,-100.0,-100.0,-100.0,-100.0,-100.0,-100.0,-100.0,-100.0,-100.0,-100.0,-100.0,-100.0,-100.0,-100.0,-100.0,-100.0,-100.0,-100.0,-100.0,-100.0,-100.0,-100.0,-100.0,-100.0,-100.0,-100.0,-100.0,-100.0,-100.0,-100.0,-100.0,-100.0,-100.0,-100.0,-100.0,-100.0,-100.0,-100.0,-100.0,-100.0,-100.0,-100.0,-100.0,-100.0,-100.0,-100.0,-100.0,-100.0,-100.0,-100.0,-100.0,-100.0,-100.0,-100.0,-100.0,-100.0,-100.0,-100.0,-100.0,-100.0,-100.0,-100.0,-100.0,-100.0,-100.0,-100.0,-100.0,-100.0,-100.0,-100.0,-100.0,-100.0,-100.0,-100.0,-100.0,-100.0,-100.0,-100.0,-100.0,-100.0,-100.0,-100.0,-100.0,-100.0,-100.0,-100.0,-100.0,-100.0,-100.0,-100.0,-100.0,-100.0,-100.0,-100.0,-100.0,-100.0,-100.0,-100.0,-100.0
2021.02.11 122707,47.0,24.0,24.858947149122805,6.9668419798245615,-31.675262657894738,-0.22233151791228073,0.62830811377193,9.971377486842107,0.005566911519824562,-0.0013234344207543863,0.003499636454210526,-0.06292826786898725,0.022280182742530002,-1.2142351928510164,1018.3397242105264,-100.0,-100.0,-100.0,-100.0,-84.0,-81.0,-78.0,-89.0,-69.0,-100.0,-100.0,-100.0,-80.0,-51.0,-65.0,-100.0,-80.0,-52.0,-65.0,-63.0,-61.0,-69.0,-57.0,-81.0,-70.0,-65.0,-60.0,-71.0,-74.0,-78.0,-72.0,-84.0,-63.0,-72.0,-58.0,-68.0,-71.0,-80.0,-76.0,-45.0,-44.0,-71.0,-74.0,-66.0,-66.0,-76.0,-73.0,-86.0,-63.0,-72.0,-58.0,-68.0,-69.0,-80.0,-76.0,-45.0,-44.0,-70.0,-74.0,-65.0,-67.0,-100.0,-100.0,-100.0,-100.0,-100.0,-100.0,-100.0,-100.0,-100.0,-100.0,-100.0,-100.0,-100.0,-100.0,-100.0,-100.0,-100.0,-100.0,-100.0,-100.0,-100.0,-100.0,-100.0,-100.0,-100.0,-100.0,-100.0,-100.0,-100.0,-100.0,-100.0,-100.0,-100.0,-100.0,-100.0,-100.0,-100.0,-100.0,-100.0,-100.0,-100.0,-100.0,-100.0,-100.0,-100.0,-100.0,-100.0,-100.0,-100.0,-100.0,-100.0,-100.0,-100.0,-100.0,-100.0,-100.0,-100.0,-100.0,-100.0,-100.0,-100.0,-100.0,-100.0,-100.0
2021.02.11 122719,48.0,24.0,23.789268040650406,7.259999868292683,-27.626341008130083,-0.2796629760487805,0.5082675610569106,9.987571398373984,0.0034369861224390237,-0.0028289019942926833,0.0028751787865853645,-0.050841074876063194,0.027987538632459702,-1.2087849010296954,1018.334803902439,-100.0,-100.0,-100.0,-100.0,-85.0,-76.0,-82.0,-87.0,-70.0,-83.0,-68.0,-62.0,-82.0,-49.0,-64.0,-58.0,-81.0,-49.0,-64.0,-48.0,-63.0,-68.0,-60.0,-100.0,-77.0,-67.0,-57.0,-72.0,-100.0,-80.0,-73.0,-84.0,-66.0,-74.0,-62.0,-68.0,-67.0,-83.0,-100.0,-39.0,-45.0,-72.0,-72.0,-68.0,-72.0,-79.0,-72.0,-84.0,-64.0,-74.0,-64.0,-68.0,-68.0,-82.0,-100.0,-38.0,-45.0,-73.0,-72.0,-67.0,-72.0,-81.0,-90.0,-90.0,-77.0,-90.0,-78.0,-90.0,-89.0,-100.0,-100.0,-100.0,-100.0,-100.0,-100.0,-100.0,-100.0,-100.0,-100.0,-100.0,-100.0,-100.0,-100.0,-100.0,-100.0,-100.0,-100.0,-100.0,-100.0,-100.0,-100.0,-100.0,-100.0,-100.0,-100.0,-100.0,-100.0,-100.0,-100.0,-100.0,-100.0,-100.0,-100.0,-100.0,-100.0,-100.0,-100.0,-100.0,-100.0,-100.0,-100.0,-100.0,-100.0,-100.0,-100.0,-100.0,-100.0,-100.0,-100.0,-100.0,-100.0,-100.0,-100.0,-100.0,-100.0
2021.02.11 122732,48.0,23.0,11.59363615,-29.39563594545454,-32.00945404545455,-0.1988554070145455,0.5123748097272728,9.975484745454546,0.001069014213636364,-0.005001875600581819,0.004148108106636363,-0.051322192427786864,0.019947746955916577,-2.765467509356412,1018.3313137272729,-100.0,-100.0,-100.0,-100.0,-83.0,-78.0,-78.0,-100.0,-61.0,-100.0,-100.0,-71.0,-76.0,-49.0,-54.0,-71.0,-76.0,-50.0,-54.0,-61.0,-60.0,-63.0,-100.0,-81.0,-76.0,-58.0,-59.0,-70.0,-70.0,-100.0,-76.0,-87.0,-60.0,-75.0,-61.0,-73.0,-65.0,-80.0,-73.0,-42.0,-47.0,-70.0,-70.0,-61.0,-69.0,-80.0,-77.0,-89.0,-59.0,-75.0,-64.0,-73.0,-65.0,-80.0,-100.0,-42.0,-47.0,-70.0,-70.0,-61.0,-69.0,-83.0,-100.0,-90.0,-100.0,-100.0,-100.0,-100.0,-100.0,-91.0,-87.0,-92.0,-89.0,-100.0,-100.0,-100.0,-100.0,-100.0,-100.0,-100.0,-100.0,-100.0,-100.0,-100.0,-100.0,-100.0,-100.0,-100.0,-100.0,-100.0,-100.0,-100.0,-100.0,-100.0,-100.0,-100.0,-100.0,-100.0,-100.0,-100.0,-100.0,-100.0,-100.0,-100.0,-100.0,-100.0,-100.0,-100.0,-100.0,-100.0,-100.0,-100.0,-100.0,-100.0,-100.0,-100.0,-100.0,-100.0,-100.0,-100.0,-100.0,-100.0,-100.0,-100.0,-100.0
2021.02.11 122743,48.0,22.0,11.469729441441443,-29.640540153153154,-31.19999956756756,-0.2539441198198198,0.5146396633333333,9.985204423423427,0.0022665300958558568,-0.002920981574756757,0.0016537167675675676,-0.05148401460400569,0.025430281705281707,-2.777484532949087,1018.3278459459459,-100.0,-100.0,-100.0,-100.0,-88.0,-85.0,-74.0,-100.0,-56.0,-100.0,-70.0,-66.0,-81.0,-55.0,-59.0,-66.0,-81.0,-55.0,-59.0,-62.0,-67.0,-64.0,-53.0,-100.0,-78.0,-61.0,-100.0,-74.0,-100.0,-100.0,-74.0,-79.0,-61.0,-66.0,-70.0,-77.0,-68.0,-74.0,-76.0,-51.0,-67.0,-73.0,-74.0,-65.0,-61.0,-100.0,-72.0,-80.0,-61.0,-67.0,-69.0,-77.0,-68.0,-74.0,-76.0,-51.0,-67.0,-71.0,-75.0,-68.0,-61.0,-100.0,-100.0,-100.0,-77.0,-100.0,-78.0,-100.0,-100.0,-100.0,-100.0,-100.0,-100.0,-84.0,-83.0,-100.0,-100.0,-100.0,-100.0,-100.0,-100.0,-100.0,-100.0,-100.0,-100.0,-100.0,-100.0,-100.0,-100.0,-100.0,-100.0,-100.0,-100.0,-100.0,-100.0,-100.0,-100.0,-100.0,-100.0,-100.0,-100.0,-100.0,-100.0,-100.0,-100.0,-100.0,-100.0,-100.0,-100.0,-100.0,-100.0,-100.0,-100.0,-100.0,-100.0,-100.0,-100.0,-100.0,-100.0,-100.0,-100.0,-100.0,-100.0,-100.0,-100.0
2021.02.11 122755,48.0,21.0,15.981538290598294,-26.213845854700857,-21.5635895042735,-0.24802231264102562,0.5592371109401709,9.982509324786324,-0.001242875819316239,0.0021292046926153843,0.00507859785871795,-0.055957453436831076,0.02483990289963395,-2.587547422474266,1018.3274872649572,-100.0,-100.0,-100.0,-100.0,-87.0,-85.0,-77.0,-100.0,-56.0,-100.0,-100.0,-67.0,-85.0,-65.0,-71.0,-100.0,-87.0,-65.0,-71.0,-66.0,-71.0,-65.0,-59.0,-100.0,-100.0,-65.0,-52.0,-68.0,-100.0,-84.0,-74.0,-87.0,-67.0,-78.0,-100.0,-85.0,-67.0,-80.0,-79.0,-53.0,-62.0,-78.0,-84.0,-73.0,-67.0,-100.0,-100.0,-86.0,-69.0,-78.0,-100.0,-85.0,-66.0,-80.0,-100.0,-52.0,-62.0,-82.0,-84.0,-72.0,-67.0,-100.0,-100.0,-100.0,-100.0,-100.0,-100.0,-100.0,-100.0,-100.0,-100.0,-100.0,-100.0,-100.0,-79.0,-83.0,-78.0,-85.0,-91.0,-100.0,-100.0,-100.0,-100.0,-100.0,-100.0,-100.0,-100.0,-100.0,-100.0,-100.0,-100.0,-100.0,-100.0,-100.0,-100.0,-100.0,-100.0,-100.0,-100.0,-100.0,-100.0,-100.0,-100.0,-100.0,-100.0,-100.0,-100.0,-100.0,-100.0,-100.0,-100.0,-100.0,-100.0,-100.0,-100.0,-100.0,-100.0,-100.0,-100.0,-100.0,-100.0,-100.0,-100.0,-100.0,-100.0
2021.02.11 122807,48.0,20.0,6.432092906201551,-23.253022945736436,-21.94976717054264,-0.25123181144186046,0.4714679747286822,9.985183856589147,0.0015302410103875963,-0.0009046013782635658,0.0014970650358139535,-0.04720214399140929,0.025207330945648147,-2.884919850401176,1018.3284986821706,-100.0,-100.0,-100.0,-100.0,-86.0,-100.0,-75.0,-100.0,-57.0,-85.0,-64.0,-77.0,-100.0,-64.0,-80.0,-77.0,-100.0,-65.0,-80.0,-64.0,-75.0,-62.0,-52.0,-100.0,-71.0,-54.0,-52.0,-63.0,-79.0,-87.0,-79.0,-88.0,-81.0,-85.0,-84.0,-100.0,-69.0,-71.0,-83.0,-57.0,-63.0,-85.0,-100.0,-72.0,-75.0,-90.0,-78.0,-87.0,-81.0,-85.0,-84.0,-100.0,-70.0,-70.0,-82.0,-58.0,-63.0,-86.0,-100.0,-72.0,-75.0,-87.0,-100.0,-100.0,-100.0,-100.0,-100.0,-100.0,-100.0,-100.0,-80.0,-100.0,-100.0,-100.0,-78.0,-100.0,-81.0,-100.0,-100.0,-100.0,-100.0,-100.0,-100.0,-100.0,-100.0,-100.0,-100.0,-100.0,-100.0,-100.0,-100.0,-100.0,-100.0,-100.0,-100.0,-100.0,-100.0,-100.0,-100.0,-100.0,-100.0,-100.0,-100.0,-100.0,-100.0,-100.0,-100.0,-100.0,-100.0,-100.0,-100.0,-100.0,-100.0,-100.0,-100.0,-100.0,-100.0,-100.0,-100.0,-100.0,-100.0,-100.0,-100.0,-100.0,-100.0
2021.02.11 122820,48.0,19.0,9.658434540000002,-30.163825695652168,-36.52695610434783,-0.3209993826086956,0.4700690160869565,9.983168252173911,0.000771549325217391,-0.0029961613138956514,-0.0005330995077391308,-0.04703673582686026,0.03216630932267589,-2.8531339707581895,1018.3222110434784,-100.0,-100.0,-100.0,-100.0,-100.0,-84.0,-75.0,-100.0,-60.0,-86.0,-63.0,-79.0,-100.0,-76.0,-82.0,-80.0,-100.0,-77.0,-82.0,-66.0,-76.0,-62.0,-60.0,-83.0,-100.0,-61.0,-56.0,-65.0,-100.0,-100.0,-75.0,-88.0,-79.0,-86.0,-82.0,-100.0,-68.0,-72.0,-100.0,-61.0,-66.0,-92.0,-100.0,-77.0,-73.0,-100.0,-77.0,-89.0,-80.0,-87.0,-85.0,-100.0,-69.0,-72.0,-100.0,-61.0,-66.0,-91.0,-100.0,-77.0,-73.0,-86.0,-100.0,-100.0,-91.0,-100.0,-91.0,-100.0,-100.0,-100.0,-81.0,-100.0,-100.0,-100.0,-82.0,-100.0,-100.0,-100.0,-87.0,-86.0,-82.0,-100.0,-100.0,-100.0,-100.0,-100.0,-100.0,-100.0,-100.0,-100.0,-100.0,-100.0,-100.0,-100.0,-100.0,-100.0,-100.0,-100.0,-100.0,-100.0,-100.0,-100.0,-100.0,-100.0,-100.0,-100.0,-100.0,-100.0,-100.0,-100.0,-100.0,-100.0,-100.0,-100.0,-100.0,-100.0,-100.0,-100.0,-100.0,-100.0,-100.0,-100.0,-100.0,-100.0,-100.0
2021.02.11 122832,48.0,18.0,8.69896536637931,-30.14430992241379,-39.139137396551725,-0.26582642480689656,0.16373949981379307,9.994198443965518,0.0018515536849999998,0.0009525283732931035,0.002096826509224138,-0.016388689646003565,0.02660020013191283,-2.888788278760581,1018.3542544827585,-100.0,-100.0,-100.0,-100.0,-88.0,-83.0,-80.0,-100.0,-62.0,-100.0,-68.0,-100.0,-100.0,-68.0,-80.0,-81.0,-100.0,-68.0,-81.0,-59.0,-74.0,-67.0,-62.0,-84.0,-67.0,-64.0,-55.0,-65.0,-69.0,-100.0,-100.0,-100.0,-88.0,-100.0,-78.0,-100.0,-65.0,-72.0,-100.0,-58.0,-67.0,-100.0,-100.0,-74.0,-81.0,-100.0,-100.0,-100.0,-100.0,-100.0,-100.0,-100.0,-63.0,-72.0,-100.0,-58.0,-67.0,-100.0,-100.0,-74.0,-81.0,-83.0,-100.0,-100.0,-100.0,-100.0,-100.0,-89.0,-100.0,-100.0,-86.0,-100.0,-100.0,-100.0,-70.0,-100.0,-76.0,-100.0,-100.0,-100.0,-83.0,-100.0,-100.0,-100.0,-100.0,-100.0,-100.0,-100.0,-100.0,-100.0,-100.0,-100.0,-100.0,-100.0,-100.0,-100.0,-100.0,-100.0,-100.0,-100.0,-100.0,-100.0,-100.0,-100.0,-100.0,-100.0,-100.0,-100.0,-100.0,-100.0,-100.0,-100.0,-100.0,-100.0,-100.0,-100.0,-100.0,-100.0,-100.0,-100.0,-100.0,-100.0,-100.0,-100.0,-100.0
2021.02.11 122843,48.0,17.0,7.399137820689656,-31.279654844827583,-37.94844750000001,-0.2082606274137931,0.15793957656034485,9.99145325862069,-0.0013870853474137934,-0.0038132738085862074,0.0038662292871551726,-0.015823330829554238,0.0208955642341732,-2.930847100142775,1018.3924578448277,-100.0,-100.0,-100.0,-100.0,-89.0,-100.0,-81.0,-100.0,-54.0,-100.0,-100.0,-79.0,-100.0,-77.0,-83.0,-74.0,-100.0,-77.0,-83.0,-66.0,-69.0,-59.0,-50.0,-100.0,-67.0,-65.0,-56.0,-64.0,-100.0,-100.0,-82.0,-91.0,-89.0,-100.0,-84.0,-100.0,-73.0,-74.0,-86.0,-57.0,-70.0,-100.0,-100.0,-81.0,-85.0,-100.0,-83.0,-91.0,-100.0,-100.0,-100.0,-100.0,-73.0,-74.0,-86.0,-58.0,-70.0,-90.0,-100.0,-81.0,-86.0,-100.0,-100.0,-100.0,-100.0,-100.0,-100.0,-100.0,-100.0,-100.0,-90.0,-100.0,-100.0,-100.0,-72.0,-100.0,-80.0,-100.0,-100.0,-100.0,-75.0,-85.0,-88.0,-100.0,-100.0,-100.0,-100.0,-100.0,-100.0,-100.0,-100.0,-100.0,-100.0,-100.0,-100.0,-100.0,-100.0,-100.0,-100.0,-100.0,-100.0,-100.0,-100.0,-100.0,-100.0,-100.0,-100.0,-100.0,-100.0,-100.0,-100.0,-100.0,-100.0,-100.0,-100.0,-100.0,-100.0,-100.0,-100.0,-100.0,-100.0,-100.0,-100.0,-100.0,-100.0
2021.02.11 122854,48.0,16.0,7.030344697413794,-32.5044822586207,-35.99017200000001,-0.21946830948275858,0.29466092359482754,9.996117965517241,0.0027257226786206903,-0.0010696462174999998,-0.001136546350344828,-0.029462743370898086,0.021950520709526262,-2.9464521079227843,1018.4393550862069,-100.0,-100.0,-100.0,-100.0,-88.0,-100.0,-76.0,-100.0,-61.0,-100.0,-69.0,-81.0,-100.0,-73.0,-83.0,-81.0,-100.0,-73.0,-84.0,-55.0,-69.0,-57.0,-47.0,-84.0,-67.0,-70.0,-58.0,-69.0,-77.0,-100.0,-86.0,-84.0,-86.0,-100.0,-100.0,-100.0,-76.0,-65.0,-100.0,-60.0,-71.0,-100.0,-100.0,-84.0,-85.0,-100.0,-84.0,-85.0,-86.0,-100.0,-100.0,-100.0,-75.0,-65.0,-100.0,-60.0,-71.0,-100.0,-100.0,-82.0,-85.0,-81.0,-100.0,-100.0,-100.0,-100.0,-100.0,-100.0,-100.0,-100.0,-100.0,-100.0,-100.0,-100.0,-75.0,-100.0,-100.0,-100.0,-100.0,-100.0,-78.0,-81.0,-100.0,-90.0,-92.0,-92.0,-100.0,-100.0,-100.0,-100.0,-100.0,-100.0,-100.0,-100.0,-100.0,-100.0,-100.0,-100.0,-100.0,-100.0,-100.0,-100.0,-100.0,-100.0,-100.0,-100.0,-100.0,-100.0,-100.0,-100.0,-100.0,-100.0,-100.0,-100.0,-100.0,-100.0,-100.0,-100.0,-100.0,-100.0,-100.0,-100.0,-100.0,-100.0,-100.0
2021.02.11 122907,48.0,15.0,9.101363481060606,-31.842726871212122,-32.35318137878787,-0.2271658910227273,0.3950916181818182,9.982511579545454,0.0020834207274242423,-0.00020473245653030323,0.0019193755537878785,-0.039558297051399,0.022758091369530876,-2.875096158547835,1018.4777499242425,-100.0,-100.0,-100.0,-100.0,-91.0,-100.0,-75.0,-100.0,-54.0,-100.0,-100.0,-77.0,-100.0,-76.0,-88.0,-77.0,-100.0,-76.0,-88.0,-53.0,-74.0,-58.0,-44.0,-85.0,-70.0,-70.0,-55.0,-70.0,-100.0,-100.0,-100.0,-88.0,-88.0,-100.0,-100.0,-100.0,-66.0,-68.0,-88.0,-61.0,-72.0,-100.0,-100.0,-83.0,-100.0,-100.0,-100.0,-88.0,-89.0,-100.0,-100.0,-100.0,-66.0,-68.0,-87.0,-60.0,-72.0,-100.0,-100.0,-100.0,-100.0,-82.0,-100.0,-100.0,-100.0,-100.0,-100.0,-100.0,-100.0,-100.0,-100.0,-100.0,-100.0,-100.0,-79.0,-100.0,-90.0,-100.0,-83.0,-100.0,-74.0,-100.0,-92.0,-100.0,-100.0,-100.0,-100.0,-100.0,-100.0,-100.0,-100.0,-100.0,-100.0,-100.0,-100.0,-100.0,-100.0,-100.0,-100.0,-100.0,-100.0,-100.0,-100.0,-100.0,-100.0,-100.0,-100.0,-100.0,-100.0,-100.0,-100.0,-100.0,-100.0,-100.0,-100.0,-100.0,-100.0,-100.0,-100.0,-100.0,-100.0,-100.0,-100.0,-100.0,-100.0
2021.02.11 122919,48.0,14.0,10.998260695652172,-28.638782191304344,-34.3899125826087,-0.19907874464347827,0.3243721869913044,9.993661369565217,-0.0005936015965217395,-0.0028314931144695645,0.0009807840212173909,-0.03245975791638632,0.019946290139594758,-2.784366931086001,1018.5238899999997,-100.0,-100.0,-100.0,-100.0,-100.0,-100.0,-73.0,-100.0,-66.0,-100.0,-76.0,-79.0,-100.0,-81.0,-100.0,-79.0,-100.0,-81.0,-100.0,-61.0,-71.0,-55.0,-40.0,-92.0,-58.0,-75.0,-57.0,-74.0,-81.0,-91.0,-100.0,-100.0,-100.0,-100.0,-100.0,-100.0,-65.0,-72.0,-86.0,-63.0,-72.0,-100.0,-100.0,-100.0,-100.0,-90.0,-100.0,-100.0,-100.0,-100.0,-100.0,-100.0,-65.0,-72.0,-87.0,-63.0,-72.0,-100.0,-100.0,-100.0,-100.0,-82.0,-100.0,-100.0,-92.0,-100.0,-93.0,-100.0,-100.0,-100.0,-100.0,-100.0,-100.0,-100.0,-68.0,-100.0,-100.0,-100.0,-100.0,-100.0,-70.0,-81.0,-100.0,-100.0,-100.0,-100.0,-88.0,-100.0,-100.0,-100.0,-100.0,-100.0,-100.0,-100.0,-100.0,-100.0,-100.0,-100.0,-100.0,-100.0,-100.0,-100.0,-100.0,-100.0,-100.0,-100.0,-100.0,-100.0,-100.0,-100.0,-100.0,-100.0,-100.0,-100.0,-100.0,-100.0,-100.0,-100.0,-100.0,-100.0,-100.0,-100.0,-100.0,-100.0,-100.0
2021.02.11 122931,48.0,13.0,8.516315550877193,-28.518947052631574,-33.31842050877193,-0.14901210181052632,0.4266009653508772,9.986415298245614,6.912405894736845e-05,-0.004308100254385964,0.006125285286140351,-0.042789560113624996,0.014912047773178862,-2.85455868746105,1018.573567894737,-100.0,-100.0,-100.0,-100.0,-100.0,-100.0,-73.0,-100.0,-63.0,-85.0,-73.0,-100.0,-100.0,-77.0,-100.0,-100.0,-100.0,-75.0,-100.0,-67.0,-76.0,-57.0,-52.0,-90.0,-57.0,-69.0,-62.0,-74.0,-82.0,-100.0,-100.0,-100.0,-100.0,-100.0,-100.0,-100.0,-68.0,-75.0,-87.0,-64.0,-74.0,-100.0,-100.0,-85.0,-100.0,-100.0,-100.0,-100.0,-100.0,-100.0,-100.0,-100.0,-68.0,-75.0,-86.0,-64.0,-73.0,-100.0,-100.0,-100.0,-100.0,-80.0,-92.0,-100.0,-100.0,-100.0,-100.0,-100.0,-100.0,-100.0,-100.0,-100.0,-100.0,-100.0,-61.0,-100.0,-100.0,-100.0,-100.0,-100.0,-71.0,-83.0,-91.0,-100.0,-100.0,-100.0,-100.0,-92.0,-82.0,-100.0,-100.0,-100.0,-100.0,-100.0,-100.0,-100.0,-100.0,-100.0,-100.0,-100.0,-100.0,-100.0,-100.0,-100.0,-100.0,-100.0,-100.0,-100.0,-100.0,-100.0,-100.0,-100.0,-100.0,-100.0,-100.0,-100.0,-100.0,-100.0,-100.0,-100.0,-100.0,-100.0,-100.0,-100.0,-100.0
2021.02.11 122942,49.0,13.0,22.691379043103446,6.871551621551724,-36.9434479913793,-0.2825863468017241,0.278169324224138,9.982165168103451,-0.0025877514987931033,-0.00019021084277586278,0.0033343552630172415,-0.027911663729825884,0.028390356038440104,-1.2187557641802163,1018.5766535344826,-100.0,-100.0,-100.0,-100.0,-100.0,-100.0,-73.0,-100.0,-58.0,-100.0,-71.0,-100.0,-100.0,-80.0,-100.0,-78.0,-100.0,-81.0,-89.0,-73.0,-72.0,-56.0,-44.0,-100.0,-54.0,-75.0,-54.0,-71.0,-100.0,-100.0,-79.0,-88.0,-92.0,-100.0,-100.0,-100.0,-70.0,-75.0,-100.0,-65.0,-71.0,-100.0,-100.0,-87.0,-100.0,-100.0,-87.0,-100.0,-93.0,-100.0,-100.0,-100.0,-71.0,-75.0,-100.0,-64.0,-71.0,-100.0,-100.0,-89.0,-100.0,-100.0,-100.0,-100.0,-100.0,-100.0,-100.0,-100.0,-100.0,-100.0,-100.0,-100.0,-100.0,-100.0,-74.0,-100.0,-80.0,-100.0,-100.0,-100.0,-71.0,-84.0,-100.0,-100.0,-100.0,-100.0,-88.0,-100.0,-70.0,-92.0,-100.0,-100.0,-100.0,-100.0,-100.0,-100.0,-100.0,-100.0,-100.0,-100.0,-100.0,-100.0,-100.0,-100.0,-100.0,-100.0,-100.0,-100.0,-100.0,-100.0,-100.0,-100.0,-100.0,-100.0,-100.0,-100.0,-100.0,-100.0,-100.0,-100.0,-100.0,-100.0,-100.0,-100.0,-100.0
2021.02.11 122957,50.0,13.0,-16.509677213709676,14.032257758064517,-35.02064470967742,-0.2008294545951613,0.46933578790322583,9.976885241935486,0.0011744377582258063,-0.0003087825916612903,-0.001283487023951613,-0.04704426311617412,0.02016175631856196,0.8319490441391545,1018.5772626612905,-100.0,-100.0,-100.0,-100.0,-100.0,-100.0,0.0,-100.0,-63.0,-100.0,-72.0,-80.0,-100.0,0.0,-86.0,-82.0,-100.0,0.0,-86.0,-80.0,-77.0,-61.0,-56.0,-100.0,-59.0,-71.0,0.0,-84.0,-100.0,-100.0,-81.0,-88.0,-89.0,-100.0,-100.0,-100.0,-65.0,-63.0,-100.0,-61.0,-67.0,-100.0,-100.0,-100.0,-100.0,-100.0,-82.0,-86.0,-88.0,-100.0,-100.0,-100.0,-65.0,-63.0,-81.0,-60.0,-66.0,-100.0,-100.0,-100.0,-100.0,-75.0,-100.0,-100.0,-100.0,-100.0,-100.0,-100.0,-100.0,-100.0,-100.0,-100.0,-100.0,-100.0,-72.0,-100.0,-100.0,-100.0,-77.0,-100.0,-76.0,-84.0,-100.0,-100.0,-100.0,-100.0,-88.0,-100.0,-100.0,-100.0,-89.0,-91.0,-90.0,-100.0,-100.0,-100.0,-100.0,-100.0,-100.0,-100.0,-100.0,-100.0,-100.0,-100.0,-100.0,-100.0,-100.0,-100.0,-100.0,-100.0,-100.0,-100.0,-100.0,-100.0,-100.0,-100.0,-100.0,-100.0,-100.0,-100.0,-100.0,-100.0,-100.0,-100.0,-100.0
2021.02.11 123010,50.0,14.0,-12.599999766666667,12.450499833333334,-31.637499508333335,-0.12647756743333333,0.31742098313333333,9.979876095833333,0.004413501391833333,-0.00334143305665,0.002470542615583334,-0.03179788251096999,0.012692465222304798,0.7672505368789037,1018.6091549166667,-100.0,-100.0,-100.0,-100.0,-100.0,-92.0,-76.0,-100.0,-67.0,-100.0,-77.0,-86.0,-100.0,-78.0,-82.0,-100.0,-100.0,-78.0,-82.0,-67.0,-83.0,-64.0,-54.0,-86.0,-68.0,-75.0,-62.0,-84.0,-78.0,-87.0,-80.0,-87.0,-89.0,-100.0,-100.0,-100.0,-56.0,-61.0,-86.0,-65.0,-75.0,-100.0,-100.0,-100.0,-100.0,-84.0,-79.0,-86.0,-88.0,-100.0,-100.0,-100.0,-56.0,-61.0,-100.0,-65.0,-75.0,-100.0,-100.0,-100.0,-100.0,-78.0,-90.0,-100.0,-100.0,-100.0,-100.0,-100.0,-100.0,-100.0,-100.0,-100.0,-100.0,-100.0,-69.0,-100.0,-100.0,-100.0,-82.0,-100.0,-69.0,-76.0,-100.0,-100.0,-100.0,-100.0,-100.0,-100.0,-86.0,-91.0,-100.0,-100.0,-100.0,-91.0,-100.0,-100.0,-100.0,-100.0,-100.0,-100.0,-100.0,-100.0,-100.0,-100.0,-100.0,-100.0,-100.0,-100.0,-100.0,-100.0,-100.0,-100.0,-100.0,-100.0,-100.0,-100.0,-100.0,-100.0,-100.0,-100.0,-100.0,-100.0,-100.0,-100.0,-100.0
2021.02.11 123021,50.0,15.0,-10.122105060526318,15.75894711403509,-32.49473642105263,-0.08052324210350877,0.21974822239298247,9.987633364035087,0.0032306198343859654,0.0011521774965087721,-0.0012265316957017546,-0.021997997725664256,0.008080336602440188,0.559364743922886,1018.6497342982458,-100.0,-100.0,-100.0,-100.0,-100.0,-100.0,-70.0,-100.0,-63.0,-100.0,-80.0,-81.0,-100.0,-78.0,-86.0,-100.0,-100.0,-76.0,-85.0,-62.0,-80.0,-66.0,-61.0,-90.0,-59.0,-78.0,-62.0,-83.0,-84.0,-83.0,-77.0,-86.0,-100.0,-100.0,-100.0,-100.0,-53.0,-65.0,-80.0,-66.0,-77.0,-100.0,-100.0,-84.0,-87.0,-82.0,-77.0,-86.0,-90.0,-100.0,-100.0,-100.0,-54.0,-65.0,-80.0,-65.0,-78.0,-100.0,-100.0,-84.0,-86.0,-66.0,-100.0,-100.0,-100.0,-100.0,-100.0,-100.0,-100.0,-88.0,-100.0,-100.0,-100.0,-100.0,-70.0,-100.0,-100.0,-100.0,-100.0,-100.0,-65.0,-76.0,-100.0,-100.0,-100.0,-100.0,-87.0,-100.0,-81.0,-100.0,-100.0,-100.0,-100.0,-90.0,-100.0,-100.0,-100.0,-100.0,-100.0,-100.0,-100.0,-100.0,-100.0,-100.0,-100.0,-100.0,-100.0,-100.0,-100.0,-100.0,-100.0,-100.0,-100.0,-100.0,-100.0,-100.0,-100.0,-100.0,-100.0,-100.0,-100.0,-100.0,-100.0,-100.0,-100.0
2021.02.11 123032,50.0,16.0,-8.93362816017699,18.90159271681416,-33.65362788495575,-0.24199126099999999,0.04337239359823009,9.98065104424779,-0.0007700686396460175,-0.003643081404106195,0.0005112239886725657,-0.004363383996079901,0.02435821413466356,0.4711151777115543,1018.6986702654868,-100.0,-100.0,-100.0,-100.0,-100.0,-100.0,0.0,-100.0,-63.0,-100.0,-75.0,-80.0,-89.0,-83.0,-90.0,-80.0,-100.0,-83.0,-100.0,-67.0,-83.0,-68.0,-63.0,-91.0,-59.0,-80.0,0.0,-100.0,-100.0,-81.0,-72.0,-86.0,-100.0,-100.0,-100.0,-100.0,-52.0,-59.0,-80.0,-63.0,-78.0,-100.0,-100.0,-85.0,-100.0,-81.0,-72.0,-85.0,-100.0,-100.0,-100.0,-100.0,-51.0,-59.0,-80.0,-63.0,-78.0,-100.0,-100.0,-84.0,-100.0,-72.0,-100.0,-100.0,-100.0,-100.0,-100.0,-100.0,-90.0,-81.0,-100.0,-90.0,-88.0,-100.0,-64.0,-100.0,-100.0,-100.0,-100.0,-100.0,-62.0,-71.0,-100.0,-100.0,-100.0,-100.0,-100.0,-85.0,-84.0,-100.0,-100.0,-100.0,-100.0,-100.0,-87.0,-86.0,-100.0,-100.0,-100.0,-100.0,-100.0,-100.0,-100.0,-100.0,-100.0,-100.0,-100.0,-100.0,-100.0,-100.0,-100.0,-100.0,-100.0,-100.0,-100.0,-100.0,-100.0,-100.0,-100.0,-100.0,-100.0,-100.0,-100.0,-100.0,-100.0
2021.02.11 123043,50.0,17.0,-9.701785574107143,19.23964269642857,-34.29160679464285,-0.20633518138392853,0.1776466388767857,9.992035544642857,0.0032408583853571426,-0.0005118178815357142,0.0025908978241071428,-0.01777361331746107,0.020651797385653443,0.4814472712044205,1018.7447226785714,-100.0,-100.0,-100.0,-100.0,-100.0,-90.0,-61.0,-100.0,-63.0,-100.0,-100.0,-73.0,-86.0,-81.0,-89.0,-73.0,-87.0,-82.0,-88.0,-77.0,-77.0,-70.0,-61.0,-100.0,-55.0,-75.0,-66.0,-88.0,-100.0,-83.0,-72.0,-72.0,-100.0,-100.0,-100.0,-100.0,-57.0,-58.0,-76.0,-63.0,-78.0,-100.0,-100.0,-87.0,-100.0,-83.0,-73.0,-72.0,-100.0,-100.0,-100.0,-100.0,-58.0,-58.0,-76.0,-64.0,-78.0,-100.0,-100.0,-87.0,-100.0,-67.0,-100.0,-100.0,-89.0,-100.0,-100.0,-100.0,-89.0,-78.0,-100.0,-90.0,-100.0,-100.0,-62.0,-100.0,-100.0,-100.0,-75.0,-100.0,-68.0,-70.0,-100.0,-100.0,-100.0,-100.0,-89.0,-100.0,-100.0,-87.0,-100.0,-100.0,-100.0,-100.0,-100.0,-100.0,-100.0,-100.0,-100.0,-100.0,-100.0,-100.0,-100.0,-100.0,-100.0,-100.0,-100.0,-100.0,-100.0,-100.0,-100.0,-100.0,-100.0,-100.0,-100.0,-100.0,-100.0,-100.0,-100.0,-100.0,-100.0,-100.0,-100.0,-100.0,-100.0
2021.02.11 123054,50.0,18.0,-12.581999713636362,20.763817909090907,-31.882363127272725,-0.15832686321818182,0.09853529173090908,9.993920768181818,0.0030848693900000002,-0.002747227549072727,0.0024154724012727274,-0.009908222148607614,0.01595703596804837,0.554194562272592,1018.7906393636362,-100.0,-100.0,-100.0,-89.0,-100.0,-100.0,-71.0,-100.0,-64.0,-100.0,-80.0,-71.0,-82.0,-78.0,-89.0,-69.0,-82.0,-78.0,-100.0,-73.0,-100.0,-71.0,-61.0,-100.0,-55.0,-80.0,-68.0,-86.0,-81.0,-79.0,-73.0,-82.0,-89.0,-100.0,-100.0,-100.0,-57.0,-59.0,-84.0,-59.0,-71.0,-100.0,-100.0,-85.0,-100.0,-79.0,-73.0,-82.0,-100.0,-100.0,-100.0,-100.0,-58.0,-59.0,-83.0,-63.0,-71.0,-100.0,-100.0,-84.0,-100.0,-66.0,-86.0,-100.0,-84.0,-100.0,-85.0,-100.0,-85.0,-78.0,-100.0,-85.0,-100.0,-100.0,-65.0,-100.0,-100.0,-100.0,-100.0,-100.0,-63.0,-74.0,-100.0,-100.0,-100.0,-100.0,-100.0,-87.0,-85.0,-100.0,-100.0,-100.0,-100.0,-100.0,-88.0,-87.0,-100.0,-100.0,-100.0,-100.0,-100.0,-100.0,-100.0,-100.0,-100.0,-100.0,-100.0,-100.0,-100.0,-100.0,-100.0,-100.0,-100.0,-100.0,-100.0,-100.0,-100.0,-100.0,-100.0,-100.0,-100.0,-100.0,-100.0,-100.0,-100.0
2021.02.11 123105,50.0,19.0,-18.844324018018018,17.446486360360357,-23.11783757657657,-0.12944182963603604,0.00929668865045045,9.993508932432434,0.004638448409189189,7.831177538738801e-05,0.006166414999549548,-0.0009178699275315484,0.013019048487636017,0.8299764878041035,1018.8342665765765,-100.0,-100.0,-100.0,-100.0,-100.0,-100.0,-65.0,-100.0,-67.0,-100.0,-100.0,-72.0,-76.0,-77.0,-88.0,-67.0,-76.0,-77.0,-89.0,-71.0,-83.0,-70.0,-67.0,-100.0,-52.0,-76.0,-70.0,-87.0,-100.0,-100.0,-77.0,-75.0,-90.0,-100.0,-100.0,-100.0,-56.0,-59.0,-77.0,-68.0,-76.0,-100.0,-100.0,-83.0,-100.0,-100.0,-77.0,-75.0,-91.0,-100.0,-100.0,-100.0,-56.0,-59.0,-77.0,-68.0,-76.0,-100.0,-100.0,-82.0,-100.0,-59.0,-88.0,-100.0,-83.0,-100.0,-83.0,-100.0,-86.0,-73.0,-100.0,-86.0,-100.0,-100.0,-66.0,-76.0,-100.0,-100.0,-100.0,-100.0,-71.0,-75.0,-100.0,-100.0,-100.0,-100.0,-100.0,-100.0,-100.0,-85.0,-100.0,-100.0,-100.0,-87.0,-82.0,-100.0,-91.0,-88.0,-90.0,-100.0,-100.0,-100.0,-100.0,-100.0,-100.0,-100.0,-100.0,-100.0,-100.0,-100.0,-100.0,-100.0,-100.0,-100.0,-100.0,-100.0,-100.0,-100.0,-100.0,-100.0,-100.0,-100.0,-100.0,-100.0,-100.0
2021.02.11 123116,49.0,19.0,-20.850545227272722,-15.385090631818187,-28.665272209090915,-0.20081435687272728,0.26323963140909085,9.980686890909091,0.005050745379272727,0.0035557910218363643,0.0013270214990909089,-0.02639869765420864,0.020126752159293614,2.171808975393122,1018.8392384545452,-100.0,-100.0,-100.0,-100.0,-100.0,-100.0,-68.0,-100.0,-64.0,-100.0,-83.0,-72.0,-82.0,-80.0,-88.0,-74.0,-82.0,-80.0,-87.0,-78.0,-78.0,-81.0,-60.0,-100.0,-58.0,-82.0,-100.0,-89.0,-83.0,-70.0,-66.0,-64.0,-81.0,-100.0,-100.0,-100.0,-55.0,-55.0,-69.0,-60.0,-68.0,-94.0,-100.0,-74.0,-84.0,-71.0,-67.0,-64.0,-83.0,-100.0,-100.0,-100.0,-55.0,-55.0,-78.0,-59.0,-68.0,-100.0,-100.0,-74.0,-83.0,-63.0,-92.0,-83.0,-80.0,-100.0,-81.0,-100.0,-88.0,-73.0,-100.0,-88.0,-84.0,-100.0,-100.0,-84.0,-100.0,-100.0,-79.0,-100.0,-72.0,-78.0,-100.0,-100.0,-100.0,-100.0,-100.0,-100.0,-81.0,-100.0,-100.0,-100.0,-100.0,-82.0,-81.0,-81.0,-87.0,-100.0,-89.0,-90.0,-88.0,-100.0,-100.0,-100.0,-100.0,-100.0,-100.0,-100.0,-100.0,-100.0,-100.0,-100.0,-100.0,-100.0,-100.0,-100.0,-100.0,-100.0,-100.0,-100.0,-100.0,-100.0,-100.0,-100.0,-100.0
2021.02.11 123128,48.0,19.0,7.042499849107143,-21.82285679464286,-28.392321098214286,-0.1429082787589286,0.2693559160892857,9.998192316964284,0.006235188741428572,0.0009880744794821433,0.002383639783303571,-0.026926746749917796,0.014304298381570546,-2.8381247924906865,1018.8442525892858,-100.0,-100.0,-100.0,-100.0,-100.0,-100.0,-75.0,-100.0,-67.0,-100.0,-82.0,-74.0,-80.0,-81.0,-100.0,-74.0,-80.0,-80.0,-100.0,-81.0,-83.0,-72.0,-62.0,-100.0,-56.0,-78.0,-100.0,-89.0,-87.0,-100.0,-73.0,-71.0,-91.0,-100.0,-100.0,-100.0,-54.0,-59.0,-80.0,-62.0,-76.0,-100.0,-100.0,-83.0,-100.0,-100.0,-73.0,-72.0,-90.0,-100.0,-100.0,-100.0,-55.0,-59.0,-81.0,-62.0,-76.0,-100.0,-100.0,-85.0,-100.0,-72.0,-92.0,-100.0,-84.0,-100.0,-83.0,-100.0,-88.0,-80.0,-100.0,-90.0,-100.0,-100.0,-67.0,-79.0,-100.0,-100.0,-82.0,-100.0,-73.0,-79.0,-100.0,-100.0,-100.0,-100.0,-100.0,-100.0,-85.0,-88.0,-100.0,-100.0,-100.0,-100.0,-85.0,-84.0,-100.0,-100.0,-100.0,-100.0,-100.0,-89.0,-100.0,-100.0,-100.0,-100.0,-100.0,-100.0,-100.0,-100.0,-100.0,-100.0,-100.0,-100.0,-100.0,-100.0,-100.0,-100.0,-100.0,-100.0,-100.0,-100.0,-100.0,-100.0,-100.0
2021.02.11 123139,48.0,18.0,3.789189131531531,-21.518378153153154,-30.48648595495495,-0.2196046110360361,0.06261783546306307,10.016308495495494,0.0009897666873873875,-0.0012810010435315316,-0.0006686719170270267,-0.006265799075245482,0.021898949344701154,-2.9986218482524425,1018.8649607207205,-100.0,-100.0,-100.0,-100.0,-100.0,-100.0,-74.0,-100.0,-66.0,-100.0,-100.0,-80.0,-84.0,-83.0,-100.0,-80.0,-84.0,-81.0,-100.0,-73.0,-87.0,-67.0,-59.0,-100.0,-57.0,-83.0,-66.0,-86.0,-84.0,-75.0,-73.0,-70.0,-100.0,-100.0,-100.0,-100.0,-62.0,-70.0,-81.0,-69.0,-78.0,-100.0,-100.0,-82.0,-100.0,-77.0,-71.0,-70.0,-100.0,-100.0,-100.0,-100.0,-62.0,-71.0,-79.0,-69.0,-78.0,-100.0,-100.0,-81.0,-100.0,-74.0,-100.0,-100.0,-100.0,-100.0,-79.0,-100.0,-88.0,-72.0,-100.0,-87.0,-90.0,-100.0,-67.0,-71.0,-100.0,-100.0,-80.0,-100.0,-69.0,-83.0,-100.0,-100.0,-100.0,-100.0,-100.0,-100.0,-100.0,-87.0,-100.0,-100.0,-100.0,-100.0,-85.0,-86.0,-87.0,-100.0,-100.0,-100.0,-100.0,-82.0,-91.0,-100.0,-100.0,-100.0,-100.0,-100.0,-100.0,-100.0,-100.0,-100.0,-100.0,-100.0,-100.0,-100.0,-100.0,-100.0,-100.0,-100.0,-100.0,-100.0,-100.0,-100.0,-100.0
2021.02.11 123149,48.0,17.0,1.6426315488596495,-24.577368087719304,-31.06526280701754,-0.21905514314912283,0.10887649657017544,10.012542201754385,0.00013342578157894667,-0.006751561330403508,0.004121218383333332,-0.010895836161931521,0.0218843426300098,-1.2298662850731297,1018.9147353508772,-100.0,-100.0,-100.0,-100.0,-100.0,-100.0,-65.0,-100.0,-61.0,-100.0,-79.0,-75.0,-87.0,-80.0,-100.0,-76.0,-88.0,-79.0,-100.0,-67.0,-88.0,-73.0,-59.0,-100.0,-60.0,-83.0,-100.0,-84.0,-100.0,-79.0,-73.0,-77.0,-100.0,-100.0,-100.0,-100.0,-58.0,-67.0,-86.0,-69.0,-83.0,-100.0,-100.0,-90.0,-100.0,-79.0,-71.0,-77.0,-100.0,-100.0,-100.0,-100.0,-58.0,-67.0,-86.0,-69.0,-83.0,-100.0,-100.0,-69.0,-100.0,-76.0,-93.0,-100.0,-100.0,-100.0,-84.0,-100.0,-100.0,-82.0,-100.0,-92.0,-100.0,-100.0,-59.0,-80.0,-100.0,-100.0,-74.0,-100.0,-75.0,-78.0,-100.0,-100.0,-100.0,-100.0,-100.0,-85.0,-84.0,-100.0,-100.0,-90.0,-100.0,-100.0,-100.0,-100.0,-100.0,-100.0,-100.0,-100.0,-100.0,-90.0,-100.0,-90.0,-100.0,-100.0,-100.0,-100.0,-100.0,-100.0,-100.0,-100.0,-100.0,-100.0,-100.0,-100.0,-100.0,-100.0,-100.0,-100.0,-100.0,-100.0,-100.0,-100.0,-100.0
2021.02.11 123201,48.0,16.0,0.6032432408108107,-28.236756333333332,-33.34108072972973,-0.26060926396396406,0.1043127295855856,10.013914135135137,-0.00024297023009009,-0.00262380396245045,0.003954092257117117,-0.010423992985056972,0.025980466473344163,0.3572229716154906,1018.9566790990991,-100.0,-100.0,-100.0,-100.0,-100.0,-100.0,-63.0,-100.0,-72.0,-100.0,-78.0,-80.0,-85.0,-100.0,-100.0,-80.0,-85.0,-83.0,-100.0,-77.0,-85.0,-78.0,-56.0,-91.0,-61.0,-81.0,-68.0,-86.0,-100.0,-81.0,-74.0,-83.0,-100.0,-100.0,-100.0,-100.0,-61.0,-69.0,-82.0,-73.0,-80.0,-100.0,-100.0,-100.0,-100.0,-81.0,-74.0,-84.0,-100.0,-100.0,-100.0,-100.0,-61.0,-69.0,-82.0,-72.0,-80.0,-100.0,-100.0,-100.0,-100.0,-74.0,-100.0,-86.0,-90.0,-100.0,-90.0,-90.0,-100.0,-87.0,-100.0,-100.0,-87.0,-100.0,-62.0,-73.0,-100.0,-100.0,-76.0,-100.0,-72.0,-100.0,-100.0,-100.0,-100.0,-100.0,-88.0,-81.0,-76.0,-100.0,-100.0,-90.0,-100.0,-100.0,-100.0,-100.0,-100.0,-100.0,-100.0,-100.0,-100.0,-100.0,-100.0,-90.0,-90.0,-88.0,-90.0,-100.0,-100.0,-100.0,-100.0,-100.0,-100.0,-100.0,-100.0,-100.0,-100.0,-100.0,-100.0,-100.0,-100.0,-100.0,-100.0,-100.0,-100.0
2021.02.11 123211,48.0,15.0,-0.3249557472566372,-30.45982247787611,-33.981769327433625,-0.22465925343893808,0.07684986603539821,10.002708084070793,0.004673659536814159,-0.004118799562513274,0.0011545245506194685,-0.007693797626544951,0.0224387947638906,1.6033416321847291,1019.003747079646,-100.0,-100.0,-100.0,-100.0,-100.0,-100.0,-73.0,-100.0,-63.0,-100.0,-77.0,-77.0,-100.0,-100.0,-100.0,-76.0,-100.0,-84.0,-100.0,-78.0,-86.0,-74.0,-57.0,-100.0,-66.0,-82.0,-71.0,-86.0,-100.0,-81.0,-70.0,-88.0,-100.0,-100.0,-100.0,-100.0,-67.0,-72.0,-80.0,-73.0,-88.0,-100.0,-100.0,-91.0,-100.0,-81.0,-75.0,-88.0,-100.0,-100.0,-100.0,-100.0,-66.0,-73.0,-81.0,-73.0,-100.0,-100.0,-100.0,-90.0,-100.0,-70.0,-100.0,-100.0,-100.0,-91.0,-100.0,-100.0,-100.0,-91.0,-100.0,-100.0,-90.0,-100.0,-57.0,-87.0,-100.0,-100.0,-82.0,-100.0,-78.0,-100.0,-100.0,-100.0,-100.0,-100.0,-100.0,-86.0,-78.0,-92.0,-100.0,-91.0,-90.0,-86.0,-100.0,-100.0,-100.0,-100.0,-100.0,-100.0,-100.0,-90.0,-100.0,-100.0,-100.0,-100.0,-100.0,-91.0,-100.0,-100.0,-100.0,-100.0,-100.0,-100.0,-100.0,-100.0,-100.0,-100.0,-100.0,-100.0,-100.0,-100.0,-100.0,-100.0,-100.0
2021.02.11 123223,48.0,14.0,3.852212333628318,-29.644247265486722,-32.88159245132743,-0.06581077438407079,0.05725071228141593,10.013874305309734,0.004051982867964601,-0.00407555237019469,0.004489956842831859,-0.005695209410263041,0.006595812867872735,-3.020012083306777,1019.0439001769912,-100.0,-100.0,-100.0,-100.0,-100.0,-100.0,-77.0,-100.0,-70.0,-100.0,-83.0,-80.0,-100.0,-87.0,-100.0,-80.0,-100.0,-80.0,-100.0,-74.0,-88.0,-75.0,-70.0,-100.0,-62.0,-100.0,-75.0,-81.0,-100.0,-100.0,-81.0,-100.0,-100.0,-100.0,-100.0,-100.0,-64.0,-77.0,-78.0,-100.0,-88.0,-100.0,-100.0,-88.0,-100.0,-84.0,-82.0,-100.0,-100.0,-100.0,-100.0,-100.0,-65.0,-77.0,-79.0,-100.0,-88.0,-100.0,-100.0,-87.0,-100.0,-64.0,-100.0,-90.0,-84.0,-100.0,-88.0,-100.0,-100.0,-91.0,-100.0,-100.0,-90.0,-100.0,-61.0,-100.0,-100.0,-100.0,-81.0,-100.0,-76.0,-100.0,-100.0,-100.0,-100.0,-100.0,-90.0,-100.0,-100.0,-90.0,-88.0,-100.0,-100.0,-100.0,-100.0,-100.0,-100.0,-100.0,-100.0,-100.0,-91.0,-100.0,-100.0,-91.0,-100.0,-100.0,-100.0,-100.0,-89.0,-100.0,-100.0,-100.0,-100.0,-100.0,-100.0,-100.0,-100.0,-100.0,-100.0,-100.0,-100.0,-100.0,-100.0,-100.0,-100.0
2021.02.11 123245,49.0,13.0,21.0121006302521,2.2729411403361346,-32.789243243697484,-0.23230501621848743,0.17661297659159664,10.005835386554619,0.001168600472605042,0.0009890369804033614,0.007704006631848741,-0.017610678898792732,0.02328999423101039,-1.4292508904673473,1019.1029479831933,-100.0,-100.0,-100.0,-100.0,-100.0,-100.0,-71.0,-100.0,-72.0,-100.0,-100.0,-84.0,-100.0,-87.0,-100.0,-83.0,-100.0,-82.0,-100.0,-79.0,-91.0,-84.0,-65.0,-100.0,-61.0,-100.0,-71.0,-90.0,-100.0,-85.0,-82.0,-90.0,-100.0,-100.0,-100.0,-100.0,-63.0,-69.0,-80.0,-72.0,-89.0,-100.0,-100.0,-89.0,-100.0,-85.0,-82.0,-91.0,-100.0,-100.0,-100.0,-100.0,-64.0,-69.0,-80.0,-72.0,-90.0,-100.0,-100.0,-90.0,-100.0,-70.0,-100.0,-100.0,-100.0,-90.0,-100.0,-100.0,-100.0,-100.0,-100.0,-100.0,-100.0,-100.0,-68.0,-90.0,-100.0,-100.0,-100.0,-100.0,-75.0,-100.0,-100.0,-100.0,-100.0,-100.0,-100.0,-82.0,-100.0,-100.0,-100.0,-90.0,-100.0,-100.0,-100.0,-100.0,-100.0,-100.0,-100.0,-100.0,-100.0,-100.0,-100.0,-90.0,-100.0,-100.0,-100.0,-100.0,-100.0,-100.0,-100.0,-100.0,-100.0,-100.0,-100.0,-100.0,-100.0,-100.0,-100.0,-100.0,-100.0,-100.0,-100.0,-100.0,-100.0
2021.02.11 123256,50.0,13.0,-3.4317856687499995,14.22964254017857,-31.338213785714288,-0.214843408925,0.349606879875,9.995904892857144,0.004298964063928571,-0.0005718135068392859,0.003398112386875,-0.03498649450089678,0.021623050001965387,0.25971392462296145,1019.1102837500001,-100.0,-100.0,-100.0,-100.0,-100.0,-100.0,-76.0,-100.0,-70.0,-100.0,-100.0,-75.0,-100.0,-83.0,-100.0,-75.0,-100.0,-85.0,-100.0,-78.0,-87.0,-82.0,-67.0,-100.0,-62.0,-85.0,-70.0,-91.0,-100.0,-84.0,-82.0,-88.0,-100.0,-100.0,-100.0,-100.0,-63.0,-71.0,-81.0,-75.0,-79.0,-100.0,-100.0,-100.0,-100.0,-82.0,-82.0,-86.0,-100.0,-100.0,-100.0,-100.0,-63.0,-71.0,-80.0,-75.0,-79.0,-100.0,-100.0,-88.0,-100.0,-80.0,-100.0,-100.0,-90.0,-100.0,-90.0,-100.0,-100.0,-100.0,-100.0,-100.0,-100.0,-100.0,-66.0,-90.0,-100.0,-100.0,-86.0,-100.0,-79.0,-86.0,-100.0,-100.0,-100.0,-100.0,-100.0,-89.0,-100.0,-100.0,-100.0,-84.0,-82.0,-100.0,-100.0,-100.0,-100.0,-100.0,-100.0,-100.0,-100.0,-100.0,-100.0,-100.0,-100.0,-100.0,-100.0,-100.0,-100.0,-85.0,-85.0,-100.0,-100.0,-100.0,-100.0,-100.0,-100.0,-100.0,-100.0,-100.0,-100.0,-100.0,-100.0,-100.0,-100.0
2021.02.11 123308,50.0,14.0,-5.071034413793102,15.708103215517243,-27.65793070689655,-0.09597739572413791,0.15180940686551728,10.014013077586208,0.002820512196551725,0.0016107882753103441,-0.0023214142487931032,-0.015115859017146783,0.00965699060330293,0.31589442144694,1019.1340085344829,-100.0,-100.0,-100.0,-100.0,-100.0,-100.0,-75.0,-100.0,-84.0,-100.0,-82.0,-78.0,-100.0,-87.0,-100.0,-68.0,-100.0,-87.0,-100.0,-76.0,-100.0,-84.0,-65.0,-100.0,-64.0,-100.0,-72.0,-100.0,-100.0,-79.0,-85.0,-89.0,-100.0,-100.0,-100.0,-100.0,-67.0,-77.0,-73.0,-76.0,-91.0,-100.0,-100.0,-100.0,-100.0,-79.0,-84.0,-88.0,-100.0,-100.0,-100.0,-100.0,-67.0,-77.0,-74.0,-75.0,-89.0,-100.0,-100.0,-100.0,-100.0,-78.0,-100.0,-100.0,-100.0,-100.0,-100.0,-100.0,-100.0,-91.0,-100.0,-100.0,-100.0,-100.0,-66.0,-83.0,-100.0,-100.0,-100.0,-100.0,-83.0,-100.0,-100.0,-100.0,-100.0,-100.0,-100.0,-87.0,-100.0,-100.0,-100.0,-100.0,-100.0,-100.0,-100.0,-100.0,-100.0,-100.0,-100.0,-100.0,-100.0,-100.0,-100.0,-89.0,-100.0,-100.0,-100.0,-100.0,-100.0,-100.0,-100.0,-100.0,-100.0,-100.0,-100.0,-100.0,-100.0,-100.0,-100.0,-100.0,-100.0,-100.0,-100.0,-100.0,-100.0
2021.02.11 123318,50.0,15.0,-2.944864817117117,16.865405234234235,-28.86324278378378,-0.19771101626126122,-0.046095182906306285,10.016567364864866,-0.0006171941115315311,0.0007001836159459458,0.0012354665977477477,0.004553629365709787,0.01984572085040105,0.20418870378587697,1019.1779686486487,-100.0,-100.0,-100.0,-100.0,-100.0,-100.0,-76.0,-100.0,-77.0,-100.0,-87.0,-84.0,-100.0,-90.0,-100.0,-84.0,-100.0,-100.0,-100.0,-77.0,-100.0,-84.0,-67.0,-100.0,-64.0,-100.0,-100.0,-100.0,-100.0,-74.0,-84.0,-100.0,-100.0,-100.0,-100.0,-100.0,-66.0,-77.0,-66.0,-78.0,-86.0,-100.0,-100.0,-100.0,-100.0,-74.0,-84.0,-85.0,-100.0,-100.0,-100.0,-100.0,-66.0,-77.0,-72.0,-76.0,-87.0,-100.0,-100.0,-100.0,-100.0,-100.0,-100.0,-88.0,-87.0,-100.0,-88.0,-100.0,-100.0,-100.0,-100.0,-100.0,-89.0,-100.0,-59.0,-100.0,-93.0,-100.0,-100.0,-100.0,-79.0,-100.0,-100.0,-100.0,-100.0,-100.0,-100.0,-100.0,-80.0,-100.0,-100.0,-87.0,-88.0,-100.0,-100.0,-100.0,-100.0,-100.0,-100.0,-100.0,-100.0,-100.0,-100.0,-100.0,-100.0,-100.0,-100.0,-100.0,-100.0,-88.0,-88.0,-83.0,-83.0,-100.0,-100.0,-100.0,-100.0,-100.0,-100.0,-100.0,-100.0,-100.0,-100.0,-100.0,-100.0
2021.02.11 123329,50.0,16.0,-3.4132173452173915,17.821565060869567,-35.43026029565217,-0.21760835151304347,0.26566040731304347,9.998928804347827,-0.0017569017130434784,-0.0014716538426086945,-0.00033124822991304306,-0.026786469577042265,0.021616212227989116,0.21589151167148804,1019.227558173913,-100.0,-100.0,-100.0,-100.0,-100.0,-100.0,-75.0,-100.0,-77.0,-100.0,-90.0,-82.0,-100.0,-86.0,-100.0,-83.0,-100.0,-84.0,-100.0,-80.0,-100.0,-100.0,-70.0,-100.0,-69.0,-100.0,-77.0,-100.0,-100.0,-100.0,-100.0,-91.0,-100.0,-100.0,-100.0,-100.0,-65.0,-74.0,-69.0,-73.0,-89.0,-100.0,-100.0,-100.0,-100.0,-75.0,-89.0,-91.0,-100.0,-100.0,-100.0,-100.0,-65.0,-75.0,-66.0,-73.0,-89.0,-100.0,-100.0,-100.0,-100.0,-80.0,-100.0,-100.0,-100.0,-100.0,-100.0,-100.0,-100.0,-91.0,-100.0,-100.0,-100.0,-100.0,-67.0,-100.0,-100.0,-100.0,-100.0,-100.0,-84.0,-100.0,-100.0,-100.0,-100.0,-100.0,-100.0,-100.0,-100.0,-100.0,-100.0,-100.0,-89.0,-100.0,-100.0,-100.0,-100.0,-100.0,-100.0,-100.0,-100.0,-100.0,-100.0,-100.0,-100.0,-100.0,-100.0,-100.0,-100.0,-85.0,-84.0,-82.0,-82.0,-100.0,-100.0,-100.0,-100.0,-100.0,-100.0,-100.0,-100.0,-100.0,-100.0,-100.0,-100.0
2021.02.11 123340,50.0,17.0,-5.872566272566372,17.369734353982302,-36.695043716814155,-0.1764983105221239,0.14427094736991147,10.006013380530975,0.0011922683123893809,-0.004329629069026548,0.005630599259469026,-0.014498252825980423,0.017718690362000657,0.34683431144309257,1019.2743257522125,-100.0,-100.0,-100.0,-100.0,-100.0,-100.0,-100.0,-100.0,-78.0,-100.0,-88.0,-86.0,-100.0,-91.0,-100.0,-85.0,-100.0,-90.0,-100.0,-76.0,-91.0,-100.0,-71.0,-100.0,-72.0,-100.0,-100.0,-100.0,-100.0,-71.0,-83.0,-88.0,-100.0,-100.0,-100.0,-100.0,-67.0,-82.0,-71.0,-72.0,-92.0,-100.0,-100.0,-100.0,-100.0,-71.0,-82.0,-89.0,-100.0,-100.0,-100.0,-100.0,-68.0,-83.0,-71.0,-73.0,-90.0,-100.0,-100.0,-100.0,-100.0,-81.0,-100.0,-82.0,-100.0,-100.0,-100.0,-100.0,-100.0,-100.0,-100.0,-100.0,-100.0,-100.0,-65.0,-100.0,-100.0,-100.0,-100.0,-100.0,-100.0,-100.0,-100.0,-100.0,-100.0,-100.0,-100.0,-79.0,-100.0,-100.0,-100.0,-86.0,-89.0,-100.0,-100.0,-100.0,-100.0,-100.0,-100.0,-100.0,-100.0,-100.0,-100.0,-100.0,-100.0,-100.0,-100.0,-100.0,-100.0,-85.0,-85.0,-76.0,-77.0,-88.0,-90.0,-100.0,-100.0,-100.0,-100.0,-100.0,-100.0,-100.0,-100.0,-100.0,-100.0
2021.02.11 123350,50.0,18.0,-7.3603538398230075,19.139468823008848,-34.32371639823009,-0.07581163916637168,0.13706693522123894,10.02319703982301,0.001613927266194691,-0.0019240094970265484,0.005565728533982302,-0.013645990693991123,0.007577651952154924,0.3686723993942801,1019.3205984955753,-100.0,-100.0,-100.0,-100.0,-100.0,-100.0,-80.0,-100.0,-100.0,-100.0,-100.0,-100.0,-100.0,-88.0,-100.0,-84.0,-100.0,-84.0,-100.0,-79.0,-100.0,-100.0,-72.0,-100.0,-70.0,-100.0,-83.0,-100.0,-100.0,-68.0,-82.0,-100.0,-100.0,-100.0,-100.0,-100.0,-66.0,-75.0,-70.0,-74.0,-89.0,-100.0,-100.0,-100.0,-100.0,-69.0,-82.0,-100.0,-100.0,-100.0,-100.0,-100.0,-67.0,-75.0,-68.0,-74.0,-88.0,-100.0,-100.0,-100.0,-100.0,-77.0,-100.0,-100.0,-100.0,-100.0,-100.0,-100.0,-100.0,-100.0,-100.0,-100.0,-100.0,-100.0,-72.0,-100.0,-100.0,-100.0,-100.0,-100.0,-100.0,-100.0,-100.0,-100.0,-100.0,-100.0,-100.0,-82.0,-100.0,-100.0,-100.0,-86.0,-100.0,-91.0,-100.0,-100.0,-100.0,-100.0,-100.0,-100.0,-100.0,-100.0,-100.0,-81.0,-100.0,-100.0,-100.0,-100.0,-100.0,-79.0,-79.0,-81.0,-81.0,-100.0,-100.0,-89.0,-100.0,-100.0,-100.0,-100.0,-100.0,-100.0,-100.0,-100.0,-100.0
2021.02.11 123401,50.0,19.0,-7.644220076146787,20.80458694495412,-33.64623808256881,-0.18282155093577981,0.12307451142568807,10.000029224770644,0.0003819308622018343,-0.0017912923171009179,0.0037796531595412843,-0.012310851078561618,0.01828912825327909,0.36923353825140437,1019.371430642202,-100.0,-100.0,-100.0,-100.0,-100.0,-100.0,-78.0,-100.0,-83.0,-100.0,-100.0,-83.0,-100.0,-90.0,-100.0,-84.0,-100.0,-90.0,-100.0,-100.0,-91.0,-100.0,-67.0,-100.0,-73.0,-100.0,-100.0,-100.0,-100.0,-64.0,-100.0,-100.0,-100.0,-100.0,-100.0,-100.0,-67.0,-81.0,-71.0,-67.0,-85.0,-100.0,-100.0,-100.0,-100.0,-64.0,-80.0,-100.0,-100.0,-100.0,-100.0,-100.0,-67.0,-81.0,-71.0,-67.0,-86.0,-100.0,-100.0,-100.0,-100.0,-79.0,-100.0,-83.0,-89.0,-100.0,-89.0,-100.0,-100.0,-100.0,-100.0,-100.0,-82.0,-100.0,-77.0,-100.0,-100.0,-100.0,-100.0,-100.0,-100.0,-100.0,-100.0,-100.0,-100.0,-100.0,-100.0,-79.0,-100.0,-100.0,-100.0,-100.0,-100.0,-100.0,-100.0,-100.0,-100.0,-100.0,-100.0,-100.0,-100.0,-100.0,-100.0,-100.0,-100.0,-100.0,-100.0,-100.0,-100.0,-80.0,-80.0,-72.0,-72.0,-90.0,-100.0,-100.0,-89.0,-100.0,-100.0,-100.0,-100.0,-100.0,-100.0,-100.0,-100.0
2021.02.11 123412,50.0,20.0,-11.206956330434783,22.034608513043477,-32.82991266086957,-0.1984541520347826,0.07549252589217394,10.01087926956522,0.0005537624227826093,-0.0012538674449043485,0.000736438006869565,-0.0075431737327522844,0.01989512284458407,0.4875225391076959,1019.3750608695653,-100.0,-100.0,-100.0,-100.0,-100.0,-100.0,-86.0,-100.0,-79.0,-100.0,-100.0,-81.0,-100.0,-86.0,-100.0,-80.0,-100.0,-84.0,-100.0,-88.0,-88.0,-100.0,-82.0,-100.0,-73.0,-100.0,-100.0,-100.0,-100.0,-64.0,-89.0,-86.0,-100.0,-100.0,-100.0,-100.0,-66.0,-80.0,-69.0,-100.0,-92.0,-100.0,-100.0,-90.0,-100.0,-66.0,-79.0,-86.0,-100.0,-100.0,-100.0,-100.0,-66.0,-81.0,-68.0,-73.0,-91.0,-100.0,-100.0,-90.0,-100.0,-82.0,-100.0,-80.0,-100.0,-100.0,-100.0,-100.0,-100.0,-100.0,-100.0,-100.0,-81.0,-100.0,-72.0,-89.0,-100.0,-100.0,-100.0,-100.0,-100.0,-100.0,-100.0,-100.0,-100.0,-100.0,-100.0,-77.0,-100.0,-100.0,-100.0,-85.0,-85.0,-100.0,-100.0,-100.0,-100.0,-100.0,-100.0,-100.0,-100.0,-89.0,-100.0,-87.0,-100.0,-100.0,-100.0,-100.0,-100.0,-77.0,-76.0,-71.0,-72.0,-100.0,-100.0,-100.0,-91.0,-86.0,-88.0,-89.0,-100.0,-100.0,-100.0,-100.0,-100.0
2021.02.11 123423,50.0,21.0,-7.748204974358976,22.9287177008547,-34.796409829059826,-0.13567557198632477,0.13786520711111117,10.002788965811964,0.006531297912820511,-0.0007528263259145301,-0.0005810425316239312,-0.013812690519560574,0.013653416727787498,0.33626187293448,1019.3823232478632,-100.0,-100.0,-100.0,-100.0,-100.0,-100.0,-81.0,-100.0,-81.0,-100.0,-100.0,-76.0,-100.0,-86.0,-100.0,-76.0,-100.0,-86.0,-100.0,-84.0,-88.0,-100.0,-82.0,-100.0,-70.0,-100.0,-87.0,-100.0,-100.0,-58.0,-72.0,-86.0,-100.0,-100.0,-100.0,-100.0,-64.0,-78.0,-64.0,-74.0,-100.0,-100.0,-100.0,-100.0,-100.0,-58.0,-70.0,-85.0,-100.0,-100.0,-100.0,-100.0,-64.0,-80.0,-64.0,-79.0,-100.0,-100.0,-100.0,-100.0,-100.0,-78.0,-100.0,-77.0,-85.0,-100.0,-84.0,-100.0,-100.0,-100.0,-100.0,-100.0,-77.0,-100.0,-76.0,-100.0,-100.0,-100.0,-100.0,-100.0,-81.0,-100.0,-100.0,-100.0,-100.0,-100.0,-100.0,-76.0,-100.0,-95.0,-100.0,-81.0,-82.0,-100.0,-100.0,-100.0,-100.0,-100.0,-100.0,-100.0,-100.0,-100.0,-100.0,-80.0,-100.0,-100.0,-100.0,-100.0,-100.0,-70.0,-70.0,-65.0,-65.0,-87.0,-100.0,-100.0,-88.0,-100.0,-86.0,-86.0,-92.0,-79.0,-85.0,-79.0,-85.0
